[0;32m
Recording MPU Data
TIME	Gyro x	Gyro y	Gyro z	Acel x	Acel y	Acel z	Magn x	Magn y	Magn z
[0m0	-1.366	0.328	-0.778	-0.203	0.017	1.066	728.100	245.865	331.213	
1	-1.190	0.336	-0.885	-0.205	0.019	1.065	722.811	240.558	326.117	
2	-1.236	0.336	-0.793	-0.204	0.020	1.069	-10972.626	-33368.621	1139.712	
3	-1.228	0.359	-0.862	-0.204	0.018	1.062	726.337	233.483	339.705	
4	-1.259	0.267	-0.877	-0.205	0.016	1.063	708.708	254.709	312.529	
5	-1.175	0.183	-0.687	-0.206	0.019	1.067	722.811	237.021	329.514	
6	-1.137	0.359	-0.809	-0.204	0.019	1.064	717.522	256.478	327.816	
7	-1.198	0.366	-0.877	-0.204	0.019	1.066	731.626	249.402	310.830	
8	-1.068	0.237	-1.060	-0.205	0.017	1.068	710.470	260.015	331.213	
9	-1.152	0.305	-0.824	-0.203	0.019	1.067	736.915	222.870	315.926	
10	-1.343	0.290	-0.839	-0.206	0.018	1.067	-10464.896	-33368.621	1093.852	
11	-1.320	0.275	-0.763	-0.203	0.017	1.066	717.522	263.553	338.007	
12	-1.205	0.366	-0.885	-0.203	0.018	1.078	726.337	251.171	305.735	
13	-1.251	0.381	-0.854	-0.206	0.019	1.065	724.574	242.327	321.022	
14	-1.198	0.290	-0.801	-0.205	0.017	1.065	728.100	242.327	314.228	
15	-1.152	0.366	-0.931	-0.206	0.019	1.067	722.811	240.558	329.514	
16	-1.183	0.305	-0.893	-0.205	0.018	1.067	717.522	245.865	317.625	
17	-1.328	0.328	-0.816	-0.205	0.016	1.065	731.626	231.714	317.625	
18	-1.312	0.343	-0.824	-0.206	0.018	1.068	713.996	263.553	324.419	
19	-1.236	0.389	-0.923	-0.205	0.017	1.067	-9893.698	-33368.621	1119.329	
20	-1.236	0.359	-0.832	-0.205	0.017	1.063	722.811	244.096	315.926	
21	-1.305	0.366	-0.870	-0.205	0.020	1.062	722.811	247.634	336.308	
22	-1.160	0.336	-0.893	-0.203	0.018	1.063	717.522	249.402	307.433	
23	-1.320	0.351	-0.885	-0.203	0.019	1.066	726.337	247.634	329.514	
24	-1.213	0.420	-0.961	-0.204	0.016	1.064	722.811	258.246	326.117	
25	-1.251	0.290	-0.771	-0.206	0.017	1.064	729.863	237.021	326.117	
26	-1.183	0.351	-0.870	-0.206	0.018	1.063	719.285	240.558	329.514	
27	-1.312	0.290	-0.710	-0.207	0.019	1.067	729.863	244.096	326.117	
28	-1.343	0.412	-0.946	-0.204	0.020	1.066	717.522	242.327	324.419	
29	-1.244	0.290	-0.847	-0.203	0.018	1.062	-9259.035	-33368.621	1180.476	
30	-1.213	0.366	-0.725	-0.205	0.018	1.066	733.389	237.021	315.926	
31	-1.259	0.282	-0.816	-0.204	0.018	1.064	721.048	260.015	334.610	
32	-1.198	0.404	-0.885	-0.203	0.020	1.067	726.337	244.096	319.323	
33	-1.343	0.420	-0.847	-0.206	0.019	1.068	731.626	242.327	331.213	
34	-1.328	0.359	-0.870	-0.207	0.018	1.067	733.389	251.171	329.514	
35	-1.282	0.244	-0.809	-0.205	0.018	1.066	731.626	245.865	327.816	
36	-1.236	0.374	-0.954	-0.206	0.018	1.064	728.100	242.327	324.419	
37	-1.381	0.290	-0.946	-0.206	0.019	1.063	-8751.305	-33368.621	1092.153	
38	-1.228	0.351	-0.839	-0.206	0.019	1.063	731.626	249.402	317.625	
39	-1.266	0.389	-0.839	-0.205	0.018	1.065	713.996	263.553	334.610	
40	-1.251	0.404	-0.717	-0.204	0.017	1.062	736.915	233.483	319.323	
41	-1.205	0.374	-0.984	-0.203	0.020	1.066	712.233	254.709	349.897	
42	-1.198	0.259	-0.816	-0.206	0.017	1.066	719.285	254.709	319.323	
43	-1.152	0.336	-0.870	-0.206	0.018	1.066	740.441	222.870	332.911	
44	-1.282	0.313	-0.755	-0.203	0.020	1.065	728.100	245.865	317.625	
45	-1.190	0.343	-0.893	-0.205	0.018	1.069	742.204	235.252	331.213	
46	-1.328	0.359	-0.816	-0.205	0.018	1.065	724.574	260.015	327.816	
47	-1.297	0.420	-0.885	-0.206	0.019	1.065	733.389	237.021	315.926	
48	-1.152	0.404	-0.793	-0.204	0.018	1.067	728.100	249.402	327.816	
49	-1.167	0.404	-0.900	-0.204	0.017	1.068	713.996	245.865	314.228	
50	-1.221	0.290	-0.847	-0.207	0.018	1.068	731.626	263.553	344.801	
51	-1.221	0.267	-0.771	-0.203	0.017	1.066	738.678	238.790	331.213	
52	-1.183	0.259	-0.862	-0.205	0.019	1.067	735.152	242.327	324.419	
53	-1.266	0.496	-0.954	-0.204	0.017	1.069	726.337	240.558	326.117	
54	-1.251	0.313	-0.717	-0.205	0.018	1.065	726.337	244.096	339.705	
55	-1.236	0.412	-0.877	-0.205	0.017	1.069	731.626	235.252	321.022	
56	-1.205	0.351	-0.938	-0.206	0.019	1.066	722.811	237.021	322.720	
57	-1.305	0.343	-0.862	-0.205	0.018	1.066	722.811	247.634	339.705	
58	-1.274	0.366	-0.809	-0.206	0.019	1.064	-10591.828	-33368.621	1093.852	
59	-1.167	0.427	-0.938	-0.206	0.019	1.066	712.233	237.021	326.117	
60	-1.205	0.359	-0.854	-0.205	0.018	1.066	733.389	244.096	329.514	
61	-1.328	0.328	-0.877	-0.204	0.018	1.068	722.811	240.558	309.132	
62	-1.190	0.282	-0.938	-0.205	0.019	1.067	729.863	240.558	319.323	
63	-1.205	0.397	-0.824	-0.205	0.017	1.067	721.048	245.865	331.213	
64	-1.289	0.397	-0.870	-0.204	0.018	1.067	719.285	226.408	332.911	
65	-1.282	0.381	-0.877	-0.204	0.018	1.062	729.863	254.709	329.514	
66	-1.251	0.381	-0.809	-0.205	0.017	1.063	733.389	233.483	326.117	
67	-1.312	0.381	-0.786	-0.204	0.017	1.067	724.574	263.553	338.007	
68	-1.205	0.343	-0.687	-0.204	0.017	1.067	726.337	233.483	326.117	
69	-1.190	0.305	-0.824	-0.205	0.018	1.067	719.285	247.634	343.102	
70	-1.198	0.252	-0.885	-0.206	0.018	1.066	728.100	242.327	327.816	
71	-1.213	0.397	-0.877	-0.207	0.018	1.066	736.915	229.945	326.117	
72	-1.289	0.259	-0.931	-0.204	0.019	1.065	713.996	252.940	331.213	
73	-1.190	0.328	-0.839	-0.206	0.018	1.068	733.389	240.558	312.529	
74	-1.274	0.420	-0.900	-0.206	0.017	1.068	713.996	263.553	334.610	
75	-1.335	0.381	-0.824	-0.205	0.020	1.066	717.522	235.252	317.625	
76	-1.373	0.366	-0.832	-0.204	0.020	1.068	729.863	258.246	326.117	
77	-1.221	0.282	-0.778	-0.205	0.017	1.067	735.152	245.865	314.228	
78	-1.297	0.404	-0.816	-0.206	0.019	1.063	726.337	261.784	339.705	
79	-1.228	0.496	-0.854	-0.205	0.019	1.065	-9259.035	-33368.621	1131.219	
80	-1.289	0.267	-0.763	-0.204	0.020	1.064	721.048	242.327	314.228	
81	-1.251	0.381	-0.923	-0.207	0.017	1.068	736.915	244.096	339.705	
82	-1.259	0.320	-0.923	-0.205	0.018	1.068	715.759	247.634	322.720	
83	-1.198	0.320	-0.885	-0.205	0.017	1.068	738.678	228.177	324.419	
84	-1.335	0.252	-0.824	-0.206	0.017	1.065	722.811	254.709	332.911	
85	-1.274	0.259	-0.847	-0.203	0.019	1.066	724.574	242.327	324.419	
86	-1.335	0.374	-0.977	-0.206	0.020	1.066	733.389	254.709	336.308	
87	-1.266	0.374	-0.839	-0.203	0.020	1.065	731.626	242.327	314.228	
88	-1.236	0.343	-0.854	-0.203	0.020	1.065	742.204	245.865	334.610	
89	-1.167	0.412	-0.931	-0.205	0.018	1.065	724.574	242.327	321.022	
90	-1.289	0.450	-0.793	-0.206	0.019	1.066	740.441	251.171	339.705	
91	-1.114	0.381	-0.793	-0.204	0.019	1.065	717.522	256.478	321.022	
92	-1.328	0.351	-0.839	-0.205	0.017	1.063	731.626	242.327	324.419	
93	-1.236	0.244	-0.816	-0.204	0.020	1.066	708.708	237.021	319.323	
94	-1.312	0.336	-0.854	-0.205	0.018	1.067	719.285	222.870	326.117	
95	-1.266	0.343	-0.793	-0.205	0.018	1.067	708.708	247.634	319.323	
96	-1.266	0.366	-0.793	-0.205	0.017	1.063	742.204	238.790	310.830	
97	-1.297	0.397	-0.679	-0.206	0.020	1.065	715.759	254.709	332.911	
98	-1.244	0.359	-0.847	-0.204	0.017	1.063	713.996	242.327	314.228	
99	-1.183	0.397	-0.870	-0.203	0.019	1.064	712.233	251.171	329.514	
100	-1.274	0.343	-0.977	-0.204	0.018	1.065	722.811	254.709	312.529	
101	-1.213	0.427	-0.839	-0.203	0.018	1.067	738.678	238.790	338.007	
102	-1.274	0.328	-0.931	-0.207	0.021	1.063	722.811	254.709	322.720	
103	-1.190	0.443	-0.786	-0.205	0.018	1.066	735.152	252.940	324.419	
104	-1.328	0.420	-0.885	-0.205	0.018	1.068	722.811	247.634	329.514	
105	-1.305	0.366	-0.793	-0.206	0.019	1.065	729.863	233.483	319.323	
106	-1.320	0.366	-0.771	-0.203	0.018	1.064	726.337	247.634	349.897	
107	-1.160	0.359	-0.885	-0.204	0.018	1.067	733.389	254.709	309.132	
108	-1.259	0.320	-0.885	-0.206	0.018	1.064	735.152	242.327	341.404	
109	-1.152	0.427	-0.793	-0.203	0.019	1.069	722.811	258.246	329.514	
110	-1.106	0.420	-0.793	-0.205	0.018	1.069	731.626	245.865	331.213	
111	-1.160	0.404	-0.862	-0.205	0.021	1.064	-10401.430	-33368.621	1117.631	
112	-1.190	0.298	-0.870	-0.206	0.016	1.065	712.233	251.171	326.117	
113	-1.259	0.412	-0.793	-0.205	0.017	1.066	729.863	247.634	312.529	
114	-1.312	0.389	-0.824	-0.204	0.018	1.070	726.337	251.171	339.705	
115	-1.213	0.282	-0.778	-0.205	0.017	1.062	715.759	237.021	315.926	
116	-1.205	0.305	-0.900	-0.205	0.018	1.065	728.100	249.402	334.610	
117	-1.297	0.290	-0.816	-0.204	0.020	1.068	722.811	244.096	315.926	
118	-1.205	0.343	-0.824	-0.204	0.020	1.066	728.100	245.865	331.213	
119	-1.297	0.366	-0.786	-0.204	0.017	1.069	726.337	244.096	326.117	
120	-1.236	0.359	-0.854	-0.205	0.019	1.067	728.100	235.252	321.022	
121	-1.167	0.374	-0.839	-0.204	0.019	1.065	721.048	245.865	327.816	
122	-1.343	0.359	-0.862	-0.205	0.018	1.064	722.811	233.483	319.323	
123	-1.183	0.267	-0.877	-0.204	0.017	1.068	715.759	244.096	332.911	
124	-1.373	0.343	-0.961	-0.205	0.018	1.063	712.233	244.096	312.529	
125	-1.228	0.404	-0.908	-0.205	0.018	1.068	713.996	249.402	338.007	
126	-1.274	0.320	-0.771	-0.205	0.020	1.067	733.389	233.483	315.926	
127	-1.167	0.320	-0.786	-0.206	0.020	1.065	736.915	251.171	332.911	
128	-1.282	0.320	-0.870	-0.204	0.019	1.069	713.996	270.628	307.433	
129	-1.213	0.290	-0.984	-0.204	0.020	1.065	728.100	235.252	338.007	
130	-1.144	0.389	-0.717	-0.204	0.019	1.067	729.863	251.171	329.514	
131	-1.175	0.282	-0.946	-0.206	0.020	1.067	743.967	237.021	326.117	
132	-1.198	0.336	-0.893	-0.203	0.019	1.067	722.811	258.246	322.720	
133	-1.343	0.412	-0.916	-0.205	0.021	1.069	733.389	237.021	322.720	
134	-1.160	0.298	-0.778	-0.206	0.020	1.067	731.626	249.402	338.007	
135	-1.251	0.313	-0.862	-0.203	0.020	1.066	-8878.237	-33368.621	1161.793	
136	-1.213	0.359	-0.778	-0.205	0.019	1.064	719.285	240.558	312.529	
137	-1.205	0.282	-0.847	-0.205	0.019	1.065	747.493	237.021	332.911	
138	-1.221	0.351	-0.847	-0.205	0.019	1.066	721.048	249.402	310.830	
139	-1.160	0.427	-0.832	-0.204	0.016	1.066	726.337	240.558	329.514	
140	-1.167	0.404	-0.854	-0.205	0.018	1.067	708.708	268.859	302.338	
141	-1.259	0.282	-0.969	-0.207	0.020	1.065	717.522	235.252	331.213	
142	-1.167	0.237	-0.870	-0.205	0.018	1.066	713.996	242.327	338.007	
143	-1.190	0.351	-0.824	-0.204	0.022	1.064	729.863	226.408	315.926	
144	-1.183	0.359	-0.710	-0.202	0.018	1.066	738.678	245.865	324.419	
145	-1.213	0.336	-0.839	-0.204	0.019	1.067	726.337	244.096	319.323	
146	-1.205	0.397	-0.900	-0.205	0.018	1.065	726.337	247.634	336.308	
147	-1.205	0.259	-0.824	-0.205	0.020	1.065	715.759	247.634	309.132	
148	-1.305	0.435	-0.816	-0.204	0.018	1.064	733.389	240.558	332.911	
149	-1.083	0.458	-0.801	-0.206	0.018	1.066	733.389	272.397	319.323	
150	-1.274	0.374	-0.900	-0.205	0.018	1.069	738.678	228.177	321.022	
151	-1.137	0.275	-0.854	-0.204	0.018	1.064	731.626	238.790	331.213	
152	-1.236	0.435	-0.755	-0.206	0.018	1.069	728.100	242.327	321.022	
153	-1.297	0.252	-0.854	-0.205	0.019	1.067	719.285	244.096	332.911	
154	-1.350	0.366	-0.908	-0.205	0.019	1.066	715.759	237.021	322.720	
155	-1.251	0.427	-0.854	-0.205	0.019	1.066	721.048	252.940	324.419	
156	-1.099	0.282	-0.847	-0.206	0.019	1.064	721.048	242.327	324.419	
157	-1.320	0.343	-0.877	-0.205	0.018	1.066	735.152	231.714	324.419	
158	-1.274	0.298	-0.900	-0.204	0.022	1.066	712.233	247.634	305.735	
159	-1.328	0.397	-0.778	-0.204	0.018	1.063	733.389	222.870	315.926	
160	-1.221	0.282	-0.824	-0.204	0.019	1.066	-10464.896	-33368.621	1141.410	
161	-1.175	0.351	-0.748	-0.204	0.018	1.065	713.996	256.478	324.419	
162	-1.259	0.427	-0.946	-0.203	0.016	1.068	719.285	233.483	322.720	
163	-1.259	0.404	-0.847	-0.205	0.018	1.065	722.811	258.246	336.308	
164	-1.251	0.427	-0.732	-0.207	0.018	1.070	726.337	240.558	315.926	
165	-1.205	0.351	-0.893	-0.206	0.019	1.067	713.996	238.790	327.816	
166	-1.427	0.336	-0.969	-0.205	0.020	1.065	715.759	254.709	315.926	
167	-1.236	0.320	-0.717	-0.203	0.018	1.068	724.574	238.790	321.022	
168	-1.320	0.351	-0.854	-0.204	0.019	1.066	710.470	249.402	327.816	
169	-1.228	0.351	-0.824	-0.204	0.019	1.066	743.967	237.021	315.926	
170	-1.266	0.397	-0.893	-0.205	0.017	1.066	729.863	254.709	332.911	
171	-1.305	0.343	-0.954	-0.206	0.018	1.067	738.678	252.940	314.228	
172	-1.274	0.305	-0.710	-0.204	0.017	1.067	726.337	265.322	332.911	
173	-1.282	0.336	-0.839	-0.203	0.020	1.066	728.100	242.327	310.830	
174	-1.297	0.465	-0.839	-0.206	0.018	1.066	731.626	249.402	341.404	
175	-1.328	0.320	-0.854	-0.205	0.019	1.065	731.626	249.402	331.213	
176	-1.205	0.443	-0.923	-0.204	0.019	1.066	722.811	229.945	322.720	
177	-1.198	0.359	-0.839	-0.205	0.019	1.067	721.048	260.015	327.816	
178	-1.289	0.381	-0.771	-0.206	0.020	1.066	728.100	231.714	338.007	
179	-1.236	0.290	-0.771	-0.205	0.018	1.064	722.811	254.709	319.323	
180	-1.251	0.443	-0.908	-0.205	0.018	1.067	731.626	238.790	327.816	
181	-1.236	0.336	-0.923	-0.204	0.020	1.066	733.389	254.709	339.705	
182	-1.282	0.381	-0.877	-0.204	0.017	1.068	717.522	238.790	324.419	
183	-1.305	0.366	-0.916	-0.203	0.020	1.068	724.574	252.940	321.022	
184	-1.228	0.351	-0.847	-0.203	0.018	1.065	726.337	240.558	309.132	
185	-1.228	0.313	-0.969	-0.205	0.019	1.066	-8878.237	-33368.621	1110.837	
186	-1.274	0.381	-0.877	-0.205	0.018	1.065	719.285	226.408	315.926	
187	-1.213	0.221	-0.908	-0.205	0.018	1.062	724.574	238.790	327.816	
188	-1.343	0.282	-0.877	-0.205	0.020	1.062	736.915	237.021	326.117	
189	-1.152	0.351	-0.809	-0.204	0.018	1.066	724.574	249.402	331.213	
190	-1.236	0.397	-0.748	-0.203	0.018	1.065	740.441	247.634	312.529	
191	-1.282	0.290	-0.801	-0.205	0.019	1.067	729.863	261.784	332.911	
192	-1.251	0.343	-0.961	-0.205	0.018	1.065	717.522	249.402	321.022	
193	-1.198	0.259	-0.854	-0.206	0.021	1.066	729.863	237.021	332.911	
194	-1.144	0.320	-0.748	-0.205	0.018	1.067	729.863	247.634	309.132	
195	-1.266	0.381	-0.893	-0.205	0.020	1.066	721.048	242.327	327.816	
196	-1.274	0.336	-0.847	-0.205	0.018	1.063	728.100	252.940	324.419	
197	-1.137	0.343	-0.824	-0.207	0.019	1.065	726.337	229.945	315.926	
198	-1.320	0.359	-0.832	-0.204	0.019	1.064	726.337	258.246	326.117	
199	-1.167	0.282	-0.916	-0.205	0.019	1.065	728.100	238.790	310.830	
200	-1.305	0.305	-0.740	-0.204	0.019	1.065	736.915	247.634	336.308	
201	-1.328	0.420	-0.900	-0.205	0.019	1.068	726.337	240.558	305.735	
202	-1.251	0.328	-0.877	-0.204	0.019	1.065	728.100	245.865	331.213	
203	-1.221	0.397	-0.847	-0.207	0.019	1.065	-10909.160	-33368.621	1075.168	
204	-1.320	0.374	-0.755	-0.204	0.020	1.063	717.522	249.402	314.228	
205	-1.221	0.389	-0.839	-0.203	0.017	1.066	717.522	242.327	321.022	
206	-1.289	0.412	-0.786	-0.206	0.019	1.068	721.048	267.090	317.625	
207	-1.312	0.359	-0.862	-0.203	0.019	1.066	731.626	228.177	321.022	
208	-1.221	0.290	-0.908	-0.205	0.020	1.067	728.100	260.015	327.816	
209	-1.236	0.328	-0.847	-0.206	0.017	1.064	740.441	244.096	315.926	
210	-1.213	0.290	-0.778	-0.206	0.017	1.064	736.915	254.709	336.308	
211	-1.228	0.351	-0.801	-0.204	0.017	1.064	721.048	249.402	314.228	
212	-1.312	0.298	-0.931	-0.206	0.018	1.067	733.389	251.171	336.308	
213	-1.274	0.351	-1.038	-0.205	0.017	1.067	705.182	254.709	315.926	
214	-1.167	0.313	-0.778	-0.206	0.016	1.064	731.626	249.402	341.404	
215	-1.251	0.389	-0.954	-0.203	0.017	1.066	736.915	244.096	326.117	
216	-1.289	0.404	-0.931	-0.205	0.021	1.063	736.915	247.634	326.117	
217	-1.297	0.435	-0.839	-0.204	0.018	1.068	731.626	252.940	334.610	
218	-1.175	0.336	-0.908	-0.204	0.018	1.066	722.811	233.483	322.720	
219	-1.251	0.397	-0.893	-0.205	0.018	1.067	717.522	245.865	321.022	
220	-1.236	0.259	-0.824	-0.203	0.018	1.068	724.574	245.865	327.816	
221	-1.160	0.320	-0.816	-0.205	0.018	1.066	713.996	238.790	327.816	
222	-1.289	0.374	-0.877	-0.204	0.018	1.068	729.863	244.096	319.323	
223	-1.274	0.359	-0.900	-0.204	0.018	1.069	724.574	238.790	317.625	
224	-1.297	0.320	-0.809	-0.204	0.019	1.068	729.863	240.558	326.117	
225	-1.160	0.298	-0.931	-0.205	0.018	1.069	-9512.900	-33368.621	1107.440	
226	-1.366	0.298	-0.839	-0.202	0.018	1.063	729.863	251.171	336.308	
227	-1.114	0.359	-0.671	-0.202	0.018	1.062	717.522	267.090	324.419	
228	-1.221	0.351	-1.015	-0.203	0.020	1.062	726.337	244.096	319.323	
229	-1.221	0.343	-0.778	-0.203	0.019	1.067	733.389	251.171	336.308	
230	-1.205	0.404	-0.786	-0.204	0.017	1.068	736.915	247.634	319.323	
231	-1.335	0.443	-0.793	-0.206	0.020	1.065	724.574	235.252	334.610	
232	-1.228	0.366	-0.824	-0.204	0.019	1.066	715.759	251.171	319.323	
233	-1.259	0.404	-0.717	-0.204	0.020	1.063	729.863	244.096	332.911	
234	-1.282	0.305	-0.954	-0.205	0.019	1.066	722.811	254.709	326.117	
235	-1.320	0.229	-0.839	-0.203	0.020	1.065	731.626	235.252	327.816	
236	-1.297	0.366	-0.854	-0.204	0.018	1.063	721.048	252.940	321.022	
237	-1.259	0.328	-0.710	-0.204	0.018	1.066	715.759	233.483	312.529	
238	-1.213	0.366	-0.916	-0.204	0.019	1.064	729.863	251.171	332.911	
239	-1.205	0.313	-0.832	-0.204	0.018	1.068	717.522	245.865	317.625	
240	-1.274	0.351	-0.870	-0.205	0.018	1.065	719.285	240.558	322.720	
241	-1.221	0.420	-0.832	-0.205	0.018	1.067	710.470	238.790	334.610	
242	-1.205	0.320	-0.839	-0.205	0.018	1.068	724.574	245.865	324.419	
243	-1.274	0.366	-0.961	-0.204	0.021	1.064	-8370.506	-33368.621	1156.697	
244	-1.152	0.366	-0.793	-0.204	0.018	1.066	717.522	252.940	321.022	
245	-1.175	0.313	-0.786	-0.205	0.018	1.064	735.152	238.790	321.022	
246	-1.144	0.351	-0.870	-0.204	0.019	1.067	728.100	260.015	334.610	
247	-1.289	0.305	-0.801	-0.206	0.018	1.065	728.100	235.252	307.433	
248	-1.266	0.305	-0.870	-0.204	0.018	1.066	729.863	237.021	336.308	
249	-1.305	0.374	-0.954	-0.206	0.017	1.064	712.233	233.483	319.323	
250	-1.358	0.359	-0.687	-0.205	0.018	1.066	729.863	240.558	322.720	
251	-1.251	0.320	-0.900	-0.205	0.019	1.066	733.389	254.709	309.132	
252	-1.198	0.305	-0.900	-0.206	0.019	1.065	731.626	242.327	338.007	
253	-1.152	0.237	-0.870	-0.204	0.019	1.064	722.811	240.558	326.117	
254	-1.259	0.198	-0.900	-0.204	0.019	1.065	726.337	229.945	305.735	
255	-1.129	0.252	-0.893	-0.204	0.019	1.065	743.967	275.935	339.705	
256	-1.266	0.366	-0.809	-0.205	0.019	1.065	719.285	237.021	312.529	
257	-1.160	0.404	-0.809	-0.204	0.019	1.063	726.337	258.246	332.911	
258	-1.289	0.275	-0.877	-0.205	0.018	1.065	717.522	245.865	304.036	
259	-1.335	0.298	-0.893	-0.203	0.017	1.070	729.863	247.634	322.720	
260	-1.228	0.320	-0.877	-0.203	0.018	1.067	728.100	252.940	317.625	
261	-1.236	0.305	-0.748	-0.206	0.019	1.063	719.285	226.408	332.911	
262	-1.183	0.351	-1.053	-0.205	0.018	1.067	721.048	256.478	324.419	
263	-1.297	0.313	-0.801	-0.205	0.019	1.068	721.048	231.714	338.007	
264	-1.282	0.298	-0.916	-0.203	0.019	1.065	726.337	251.171	319.323	
265	-1.228	0.290	-0.793	-0.207	0.017	1.066	721.048	235.252	317.625	
266	-1.266	0.351	-0.854	-0.204	0.019	1.068	736.915	240.558	329.514	
267	-1.183	0.343	-0.870	-0.205	0.018	1.071	728.100	231.714	314.228	
268	-1.266	0.366	-0.877	-0.205	0.019	1.070	715.759	240.558	322.720	
269	-1.366	0.336	-0.793	-0.205	0.020	1.066	724.574	249.402	324.419	
270	-1.236	0.305	-0.816	-0.205	0.020	1.062	-9830.231	-33368.621	1131.219	
271	-1.152	0.351	-0.893	-0.204	0.020	1.064	724.574	245.865	331.213	
272	-1.274	0.443	-0.847	-0.204	0.018	1.068	731.626	242.327	321.022	
273	-1.183	0.320	-0.847	-0.204	0.020	1.065	722.811	240.558	319.323	
274	-1.328	0.366	-0.748	-0.204	0.018	1.065	729.863	244.096	329.514	
275	-1.259	0.237	-0.854	-0.204	0.020	1.067	733.389	240.558	312.529	
276	-1.190	0.320	-0.793	-0.204	0.018	1.064	722.811	233.483	332.911	
277	-1.183	0.412	-0.824	-0.205	0.018	1.068	726.337	247.634	315.926	
278	-1.274	0.305	-0.854	-0.204	0.021	1.064	729.863	233.483	346.500	
279	-1.312	0.359	-0.816	-0.204	0.018	1.063	726.337	247.634	322.720	
280	-1.289	0.336	-0.839	-0.202	0.018	1.069	728.100	238.790	327.816	
281	-1.328	0.412	-0.862	-0.206	0.019	1.068	731.626	245.865	321.022	
282	-1.244	0.298	-0.778	-0.204	0.020	1.062	729.863	251.171	326.117	
283	-1.274	0.336	-0.793	-0.204	0.018	1.068	729.863	251.171	336.308	
284	-1.266	0.305	-0.870	-0.203	0.020	1.065	722.811	251.171	322.720	
285	-1.350	0.488	-0.862	-0.206	0.019	1.067	726.337	254.709	339.705	
286	-1.167	0.237	-0.870	-0.206	0.019	1.066	722.811	254.709	312.529	
287	-1.228	0.374	-0.847	-0.203	0.017	1.067	715.759	258.246	326.117	
288	-1.274	0.252	-0.832	-0.207	0.018	1.069	721.048	245.865	310.830	
289	-1.259	0.427	-0.961	-0.205	0.017	1.065	733.389	240.558	319.323	
290	-1.228	0.381	-0.786	-0.204	0.019	1.066	712.233	247.634	315.926	
291	-1.167	0.259	-0.854	-0.206	0.019	1.068	733.389	240.558	319.323	
292	-1.259	0.313	-0.832	-0.203	0.018	1.064	719.285	240.558	346.500	
293	-1.282	0.336	-0.893	-0.206	0.018	1.065	713.996	245.865	324.419	
294	-1.244	0.313	-0.916	-0.205	0.019	1.066	-8307.040	-33368.621	1115.932	
295	-1.198	0.290	-0.763	-0.204	0.021	1.066	724.574	249.402	327.816	
296	-1.213	0.359	-0.847	-0.204	0.017	1.065	717.522	242.327	324.419	
297	-1.244	0.320	-0.946	-0.206	0.016	1.066	729.863	244.096	332.911	
298	-1.251	0.267	-0.862	-0.203	0.018	1.065	715.759	244.096	322.720	
299	-1.152	0.320	-0.931	-0.206	0.019	1.067	735.152	231.714	331.213	
300	-1.274	0.389	-1.015	-0.205	0.017	1.065	731.626	249.402	327.816	
301	-1.205	0.359	-0.832	-0.204	0.019	1.064	736.915	244.096	326.117	
302	-1.259	0.359	-0.778	-0.204	0.018	1.064	719.285	261.784	332.911	
303	-1.213	0.443	-0.839	-0.205	0.019	1.062	706.945	235.252	310.830	
304	-1.289	0.359	-0.824	-0.204	0.017	1.066	742.204	249.402	321.022	
305	-1.259	0.282	-1.045	-0.206	0.019	1.064	722.811	258.246	319.323	
306	-1.266	0.404	-0.885	-0.205	0.018	1.065	724.574	235.252	327.816	
307	-1.251	0.305	-0.946	-0.206	0.017	1.068	735.152	256.478	307.433	
308	-1.198	0.351	-0.839	-0.205	0.018	1.068	715.759	237.021	332.911	
309	-1.259	0.435	-0.648	-0.204	0.020	1.067	728.100	256.478	327.816	
310	-1.305	0.336	-0.824	-0.203	0.018	1.064	719.285	240.558	329.514	
311	-1.198	0.282	-0.809	-0.205	0.019	1.066	745.730	252.940	334.610	
312	-1.221	0.359	-0.969	-0.206	0.018	1.068	715.759	240.558	326.117	
313	-1.289	0.374	-0.816	-0.207	0.017	1.066	729.863	237.021	329.514	
314	-1.266	0.374	-0.839	-0.206	0.018	1.064	721.048	242.327	321.022	
315	-1.297	0.389	-0.885	-0.206	0.018	1.065	721.048	235.252	321.022	
316	-1.244	0.336	-0.801	-0.204	0.018	1.064	715.759	258.246	329.514	
317	-1.251	0.366	-0.938	-0.204	0.020	1.065	729.863	237.021	326.117	
318	-1.320	0.404	-0.839	-0.206	0.018	1.069	728.100	256.478	321.022	
319	-1.236	0.343	-0.893	-0.205	0.019	1.069	724.574	235.252	314.228	
320	-1.289	0.336	-0.832	-0.203	0.019	1.064	-9830.231	-33368.621	1160.094	
321	-1.099	0.389	-0.832	-0.204	0.018	1.065	728.100	245.865	331.213	
322	-1.274	0.298	-0.893	-0.203	0.018	1.067	712.233	244.096	312.529	
323	-1.213	0.336	-0.832	-0.205	0.019	1.065	728.100	245.865	334.610	
324	-1.297	0.397	-0.771	-0.206	0.020	1.064	722.811	240.558	329.514	
325	-1.251	0.320	-0.847	-0.205	0.020	1.063	735.152	235.252	338.007	
326	-1.289	0.320	-0.938	-0.205	0.018	1.069	713.996	252.940	317.625	
327	-1.221	0.420	-0.862	-0.205	0.019	1.064	740.441	237.021	339.705	
328	-1.282	0.427	-0.954	-0.205	0.018	1.066	736.915	244.096	336.308	
329	-1.236	0.328	-0.847	-0.205	0.019	1.062	731.626	235.252	327.816	
330	-1.175	0.320	-0.679	-0.205	0.019	1.067	722.811	247.634	349.897	
331	-1.297	0.404	-0.885	-0.204	0.016	1.065	733.389	244.096	319.323	
332	-1.244	0.443	-0.664	-0.203	0.018	1.063	729.863	240.558	326.117	
333	-1.289	0.298	-0.923	-0.206	0.018	1.078	729.863	244.096	322.720	
334	-1.259	0.420	-0.870	-0.205	0.018	1.064	722.811	240.558	332.911	
335	-1.259	0.366	-0.938	-0.204	0.018	1.063	731.626	238.790	327.816	
336	-1.213	0.252	-0.954	-0.205	0.020	1.066	717.522	235.252	321.022	
337	-1.228	0.374	-0.916	-0.205	0.018	1.065	715.759	240.558	329.514	
338	-1.205	0.336	-0.870	-0.205	0.019	1.064	729.863	237.021	319.323	
339	-1.343	0.328	-0.816	-0.206	0.018	1.067	742.204	245.865	331.213	
340	-1.251	0.275	-0.664	-0.203	0.017	1.065	724.574	245.865	314.228	
341	-1.228	0.366	-0.732	-0.203	0.016	1.067	733.389	247.634	332.911	
342	-1.205	0.313	-0.748	-0.203	0.019	1.069	726.337	251.171	326.117	
343	-1.297	0.343	-0.847	-0.203	0.019	1.067	726.337	237.021	329.514	
344	-1.221	0.298	-0.809	-0.203	0.019	1.065	729.863	240.558	319.323	
345	-1.190	0.435	-0.961	-0.204	0.021	1.069	735.152	249.402	327.816	
346	-1.228	0.351	-0.816	-0.205	0.017	1.068	-8180.107	-33368.621	1109.138	
347	-1.183	0.290	-0.740	-0.205	0.018	1.065	717.522	252.940	331.213	
348	-1.266	0.305	-0.870	-0.205	0.019	1.068	717.522	238.790	314.228	
349	-1.328	0.366	-0.885	-0.203	0.018	1.068	715.759	251.171	326.117	
350	-1.129	0.320	-0.923	-0.204	0.017	1.065	724.574	242.327	314.228	
351	-1.190	0.305	-0.900	-0.205	0.018	1.067	724.574	238.790	324.419	
352	-1.297	0.366	-0.809	-0.205	0.020	1.067	721.048	252.940	321.022	
353	-1.137	0.374	-0.885	-0.206	0.019	1.065	733.389	244.096	326.117	
354	-1.213	0.305	-0.809	-0.205	0.020	1.066	731.626	252.940	324.419	
355	-1.198	0.336	-0.885	-0.205	0.017	1.066	733.389	233.483	326.117	
356	-1.213	0.313	-0.847	-0.206	0.019	1.065	733.389	251.171	339.705	
357	-1.343	0.305	-0.816	-0.208	0.015	1.067	733.389	237.021	312.529	
358	-1.244	0.443	-0.793	-0.203	0.019	1.065	721.048	242.327	331.213	
359	-1.312	0.298	-0.870	-0.205	0.018	1.067	729.863	247.634	315.926	
360	-1.266	0.366	-0.854	-0.205	0.018	1.065	726.337	247.634	339.705	
361	-1.274	0.298	-0.748	-0.205	0.020	1.067	721.048	256.478	314.228	
362	-1.289	0.412	-0.793	-0.204	0.020	1.066	726.337	254.709	329.514	
363	-1.259	0.282	-0.908	-0.203	0.019	1.067	728.100	263.553	317.625	
364	-1.228	0.313	-0.854	-0.204	0.017	1.068	721.048	242.327	317.625	
365	-1.183	0.351	-0.717	-0.204	0.019	1.067	717.522	252.940	334.610	
366	-1.282	0.465	-0.900	-0.205	0.019	1.066	726.337	244.096	309.132	
367	-1.167	0.389	-0.931	-0.207	0.017	1.066	728.100	245.865	327.816	
368	-1.244	0.435	-0.885	-0.205	0.018	1.066	728.100	242.327	310.830	
369	-1.228	0.351	-0.725	-0.205	0.018	1.065	722.811	240.558	326.117	
370	-1.221	0.282	-0.771	-0.204	0.019	1.068	724.574	242.327	324.419	
371	-1.213	0.366	-0.893	-0.204	0.020	1.062	729.863	237.021	332.911	
372	-1.335	0.458	-0.763	-0.203	0.019	1.068	719.285	247.634	322.720	
373	-1.205	0.244	-0.908	-0.205	0.018	1.065	735.152	245.865	314.228	
374	-1.305	0.313	-0.885	-0.205	0.018	1.064	-9576.367	-33368.621	1126.124	
375	-1.205	0.359	-0.740	-0.204	0.017	1.064	735.152	238.790	324.419	
376	-1.205	0.313	-0.786	-0.205	0.017	1.066	724.574	245.865	324.419	
377	-1.205	0.252	-0.877	-0.206	0.017	1.064	742.204	252.940	324.419	
378	-1.251	0.412	-0.809	-0.205	0.017	1.066	715.759	254.709	315.926	
379	-1.259	0.313	-0.870	-0.204	0.018	1.067	726.337	229.945	332.911	
380	-1.236	0.305	-0.862	-0.206	0.017	1.063	722.811	254.709	343.102	
381	-1.244	0.420	-0.816	-0.205	0.018	1.066	-9132.103	-33368.621	1112.535	
382	-1.175	0.420	-1.007	-0.206	0.018	1.065	729.863	254.709	332.911	
383	-1.183	0.412	-0.847	-0.207	0.017	1.067	729.863	237.021	329.514	
384	-1.213	0.404	-0.771	-0.205	0.020	1.065	715.759	251.171	332.911	
385	-1.266	0.427	-0.923	-0.205	0.020	1.064	728.100	231.714	317.625	
386	-1.228	0.427	-0.854	-0.206	0.018	1.063	728.100	256.478	327.816	
387	-1.244	0.313	-0.824	-0.205	0.019	1.070	703.419	249.402	304.036	
388	-1.228	0.328	-0.786	-0.204	0.017	1.063	736.915	240.558	326.117	
389	-1.129	0.366	-0.908	-0.203	0.019	1.062	729.863	244.096	329.514	
390	-1.244	0.343	-0.732	-0.206	0.017	1.065	738.678	242.327	324.419	
391	-1.244	0.351	-0.832	-0.204	0.019	1.065	713.996	252.940	341.404	
392	-1.205	0.404	-0.771	-0.205	0.018	1.065	728.100	242.327	307.433	
393	-1.251	0.290	-0.961	-0.205	0.018	1.064	726.337	244.096	339.705	
394	-1.213	0.366	-0.908	-0.205	0.020	1.067	735.152	252.940	327.816	
395	-1.259	0.328	-0.839	-0.204	0.019	1.065	738.678	242.327	338.007	
396	-1.244	0.336	-0.793	-0.205	0.019	1.067	717.522	245.865	327.816	
397	-1.244	0.359	-0.900	-0.205	0.019	1.063	733.389	240.558	329.514	
398	-1.343	0.320	-0.946	-0.203	0.018	1.070	710.470	252.940	327.816	
399	-1.335	0.275	-0.771	-0.206	0.018	1.070	721.048	235.252	321.022	
400	-1.144	0.313	-0.809	-0.206	0.019	1.066	722.811	251.171	332.911	
401	-1.289	0.343	-0.870	-0.206	0.018	1.069	721.048	231.714	321.022	
402	-1.282	0.267	-0.832	-0.204	0.017	1.067	719.285	265.322	332.911	
403	-1.190	0.366	-0.854	-0.203	0.018	1.065	719.285	247.634	312.529	
404	-1.244	0.359	-0.809	-0.205	0.019	1.066	731.626	238.790	321.022	
405	-1.251	0.351	-0.824	-0.205	0.018	1.063	-10782.228	-33368.621	1122.726	
406	-1.152	0.458	-0.839	-0.206	0.019	1.064	726.337	251.171	326.117	
407	-1.228	0.343	-0.961	-0.205	0.020	1.066	-10655.295	-33368.621	1122.726	
408	-1.244	0.374	-0.916	-0.206	0.020	1.066	731.626	252.940	310.830	
409	-1.244	0.366	-0.984	-0.205	0.018	1.064	721.048	245.865	314.228	
410	-1.213	0.366	-0.946	-0.203	0.019	1.068	728.100	252.940	331.213	
411	-1.251	0.381	-0.923	-0.204	0.017	1.065	719.285	240.558	309.132	
412	-1.183	0.389	-0.824	-0.203	0.018	1.068	729.863	247.634	336.308	
413	-1.236	0.313	-0.938	-0.204	0.019	1.064	726.337	233.483	329.514	
414	-1.167	0.404	-0.839	-0.205	0.018	1.064	713.996	242.327	341.404	
415	-1.221	0.275	-0.824	-0.204	0.018	1.064	719.285	251.171	319.323	
416	-1.221	0.320	-0.778	-0.204	0.019	1.067	736.915	251.171	332.911	
417	-1.343	0.374	-0.908	-0.205	0.022	1.065	722.811	240.558	343.102	
418	-1.167	0.381	-0.809	-0.204	0.019	1.065	722.811	244.096	329.514	
419	-1.350	0.343	-0.885	-0.204	0.019	1.065	733.389	258.246	326.117	
420	-1.236	0.427	-0.702	-0.205	0.020	1.067	724.574	245.865	310.830	
421	-1.152	0.320	-0.786	-0.205	0.018	1.067	729.863	265.322	326.117	
422	-1.190	0.336	-0.793	-0.204	0.020	1.068	733.389	258.246	319.323	
423	-1.259	0.381	-0.809	-0.206	0.018	1.065	745.730	242.327	327.816	
424	-1.289	0.305	-0.771	-0.204	0.019	1.066	-9576.367	-33368.621	1144.807	
425	-1.305	0.313	-0.801	-0.205	0.020	1.067	726.337	247.634	315.926	
426	-1.251	0.351	-0.923	-0.203	0.017	1.067	736.915	233.483	326.117	
427	-1.297	0.328	-0.801	-0.205	0.019	1.065	717.522	260.015	338.007	
428	-1.205	0.397	-0.725	-0.203	0.018	1.065	733.389	244.096	326.117	
429	-1.167	0.397	-0.832	-0.201	0.019	1.066	717.522	249.402	334.610	
430	-1.328	0.343	-0.771	-0.204	0.019	1.066	722.811	237.021	309.132	
431	-1.190	0.343	-0.938	-0.204	0.020	1.062	715.759	247.634	343.102	
432	-1.190	0.458	-0.900	-0.204	0.017	1.062	726.337	251.171	312.529	
433	-1.167	0.252	-0.809	-0.202	0.019	1.066	728.100	245.865	321.022	
434	-1.259	0.320	-0.847	-0.205	0.020	1.064	715.759	251.171	315.926	
435	-1.198	0.267	-0.702	-0.204	0.019	1.062	731.626	235.252	324.419	
436	-1.175	0.343	-0.870	-0.206	0.020	1.065	722.811	251.171	315.926	
437	-1.205	0.389	-0.832	-0.203	0.020	1.065	726.337	226.408	326.117	
438	-1.305	0.359	-0.938	-0.205	0.019	1.064	715.759	265.322	329.514	
439	-1.251	0.343	-0.832	-0.205	0.018	1.064	728.100	235.252	324.419	
440	-1.167	0.366	-0.870	-0.203	0.018	1.067	728.100	231.714	321.022	
441	-1.404	0.359	-0.824	-0.204	0.016	1.065	729.863	247.634	329.514	
442	-1.228	0.443	-0.809	-0.204	0.018	1.068	736.915	229.945	326.117	
443	-1.213	0.313	-0.786	-0.203	0.018	1.066	736.915	240.558	312.529	
444	-1.221	0.290	-0.793	-0.204	0.018	1.063	726.337	237.021	329.514	
445	-1.106	0.412	-0.908	-0.204	0.020	1.063	721.048	260.015	327.816	
446	-1.183	0.404	-0.916	-0.202	0.018	1.065	-8180.107	-33368.621	1200.859	
447	-1.266	0.336	-0.900	-0.203	0.020	1.067	729.863	244.096	319.323	
448	-1.259	0.389	-0.847	-0.204	0.019	1.064	726.337	244.096	326.117	
449	-1.183	0.282	-0.862	-0.203	0.019	1.066	731.626	245.865	324.419	
450	-1.198	0.328	-0.854	-0.204	0.020	1.064	729.863	261.784	332.911	
451	-1.198	0.366	-0.748	-0.204	0.018	1.064	719.285	240.558	326.117	
452	-1.198	0.473	-0.938	-0.206	0.019	1.065	721.048	245.865	334.610	
453	-1.320	0.397	-0.824	-0.205	0.018	1.067	736.915	254.709	315.926	
454	-1.282	0.313	-0.793	-0.206	0.019	1.066	731.626	231.714	317.625	
455	-1.251	0.320	-0.740	-0.204	0.019	1.065	736.915	244.096	326.117	
456	-1.228	0.366	-0.938	-0.203	0.021	1.065	722.811	240.558	322.720	
457	-1.129	0.305	-0.809	-0.206	0.018	1.066	731.626	242.327	338.007	
458	-1.266	0.275	-0.862	-0.206	0.019	1.064	722.811	240.558	319.323	
459	-1.228	0.412	-0.839	-0.204	0.018	1.064	719.285	240.558	326.117	
460	-1.236	0.420	-0.786	-0.204	0.018	1.069	719.285	261.784	322.720	
461	-1.167	0.397	-0.824	-0.205	0.019	1.065	712.233	237.021	329.514	
462	-1.228	0.435	-0.847	-0.202	0.018	1.067	724.574	256.478	321.022	
463	-1.236	0.427	-0.870	-0.204	0.019	1.066	731.626	228.177	314.228	
464	-1.312	0.336	-0.847	-0.203	0.020	1.065	-10211.029	-33368.621	1177.079	
465	-1.289	0.343	-0.908	-0.205	0.018	1.066	735.152	249.402	331.213	
466	-1.183	0.397	-0.862	-0.204	0.020	1.062	726.337	240.558	322.720	
467	-1.289	0.397	-0.870	-0.206	0.016	1.063	731.626	249.402	338.007	
468	-1.305	0.366	-0.793	-0.203	0.018	1.063	731.626	252.940	307.433	
469	-1.183	0.221	-0.710	-0.206	0.018	1.064	713.996	238.790	338.007	
470	-1.144	0.275	-0.908	-0.204	0.018	1.066	721.048	242.327	327.816	
471	-1.244	0.359	-0.954	-0.204	0.019	1.065	733.389	233.483	309.132	
472	-1.312	0.351	-0.816	-0.204	0.020	1.065	726.337	254.709	329.514	
473	-1.099	0.282	-0.832	-0.204	0.020	1.064	724.574	228.177	317.625	
474	-1.259	0.351	-0.832	-0.205	0.019	1.068	719.285	247.634	329.514	
475	-1.221	0.374	-1.007	-0.204	0.020	1.065	733.389	229.945	309.132	
476	-1.274	0.351	-0.763	-0.205	0.019	1.063	731.626	242.327	334.610	
477	-1.282	0.328	-0.809	-0.205	0.017	1.066	719.285	240.558	322.720	
478	-1.160	0.359	-0.916	-0.205	0.019	1.066	717.522	249.402	331.213	
479	-1.305	0.359	-0.801	-0.205	0.017	1.063	726.337	244.096	319.323	
480	-1.259	0.435	-0.725	-0.204	0.018	1.065	719.285	237.021	329.514	
481	-1.160	0.298	-0.809	-0.206	0.019	1.068	726.337	251.171	326.117	
482	-1.236	0.351	-0.992	-0.204	0.017	1.070	729.863	240.558	312.529	
483	-1.282	0.374	-0.977	-0.204	0.017	1.067	724.574	245.865	327.816	
484	-1.205	0.389	-0.893	-0.205	0.019	1.067	728.100	245.865	310.830	
485	-1.289	0.389	-0.824	-0.205	0.020	1.067	738.678	256.478	338.007	
486	-1.198	0.381	-0.946	-0.203	0.018	1.063	713.996	242.327	317.625	
487	-1.282	0.313	-0.908	-0.205	0.019	1.066	717.522	242.327	321.022	
488	-1.213	0.397	-0.900	-0.204	0.020	1.065	733.389	237.021	339.705	
489	-1.373	0.397	-0.893	-0.204	0.019	1.064	-8624.371	-33368.621	1146.506	
490	-1.221	0.336	-0.763	-0.204	0.019	1.067	724.574	245.865	317.625	
491	-1.228	0.298	-0.885	-0.204	0.019	1.065	728.100	252.940	341.404	
492	-1.366	0.389	-0.847	-0.206	0.019	1.066	743.967	251.171	329.514	
493	-1.266	0.374	-0.801	-0.206	0.019	1.069	736.915	251.171	332.911	
494	-1.213	0.282	-0.885	-0.204	0.017	1.066	712.233	258.246	305.735	
495	-1.244	0.237	-0.832	-0.204	0.018	1.064	712.233	240.558	336.308	
496	-1.305	0.359	-0.801	-0.205	0.017	1.065	715.759	258.246	319.323	
497	-1.350	0.275	-0.816	-0.205	0.021	1.063	735.152	249.402	324.419	
498	-1.236	0.259	-0.717	-0.204	0.019	1.066	719.285	251.171	332.911	
499	-1.236	0.343	-0.839	-0.206	0.019	1.068	722.811	233.483	319.323	
500	-1.266	0.351	-0.771	-0.206	0.016	1.068	708.708	244.096	326.117	
501	-1.251	0.366	-0.847	-0.204	0.018	1.064	726.337	233.483	322.720	
502	-1.183	0.359	-0.854	-0.204	0.016	1.068	721.048	256.478	331.213	
503	-1.312	0.366	-0.969	-0.205	0.018	1.066	722.811	237.021	302.338	
504	-1.305	0.313	-0.931	-0.204	0.017	1.066	724.574	235.252	317.625	
505	-1.266	0.381	-0.763	-0.204	0.018	1.069	717.522	249.402	321.022	
506	-1.282	0.305	-0.854	-0.204	0.017	1.066	731.626	238.790	338.007	
507	-1.266	0.320	-0.854	-0.206	0.019	1.067	721.048	270.628	321.022	
508	-1.251	0.412	-0.816	-0.205	0.018	1.068	721.048	228.177	324.419	
509	-1.244	0.343	-0.870	-0.206	0.018	1.066	721.048	245.865	341.404	
510	-1.312	0.359	-0.900	-0.203	0.017	1.068	726.337	233.483	319.323	
511	-1.213	0.343	-0.809	-0.203	0.019	1.068	724.574	252.940	341.404	
512	-1.244	0.412	-0.954	-0.205	0.020	1.066	-10337.963	-33368.621	1119.329	
513	-1.259	0.381	-0.870	-0.206	0.019	1.064	717.522	245.865	314.228	
514	-1.152	0.381	-0.801	-0.204	0.018	1.069	712.233	244.096	332.911	
515	-1.137	0.313	-0.916	-0.205	0.016	1.064	733.389	244.096	319.323	
516	-1.266	0.427	-0.786	-0.203	0.017	1.064	735.152	245.865	324.419	
517	-1.183	0.351	-0.854	-0.205	0.019	1.066	724.574	242.327	321.022	
518	-1.259	0.282	-0.839	-0.205	0.019	1.067	729.863	226.408	319.323	
519	-1.221	0.313	-0.854	-0.205	0.017	1.068	706.945	245.865	327.816	
520	-1.205	0.298	-0.885	-0.205	0.019	1.069	728.100	231.714	297.242	
521	-1.328	0.313	-0.931	-0.206	0.018	1.067	729.863	254.709	329.514	
522	-1.389	0.275	-0.847	-0.206	0.017	1.065	721.048	231.714	327.816	
523	-1.259	0.397	-0.923	-0.204	0.018	1.065	728.100	238.790	338.007	
524	-1.335	0.320	-0.961	-0.206	0.018	1.065	717.522	249.402	307.433	
525	-1.183	0.305	-0.938	-0.205	0.018	1.063	735.152	228.177	324.419	
526	-1.236	0.298	-0.847	-0.205	0.019	1.067	719.285	251.171	319.323	
527	-1.312	0.443	-0.771	-0.205	0.017	1.065	719.285	233.483	332.911	
528	-1.274	0.420	-0.862	-0.205	0.017	1.068	708.708	254.709	322.720	
529	-1.259	0.351	-0.893	-0.202	0.018	1.067	721.048	224.639	317.625	
530	-1.198	0.290	-0.755	-0.203	0.020	1.067	-9195.568	-33368.621	1183.873	
531	-1.259	0.381	-0.816	-0.205	0.020	1.067	726.337	254.709	332.911	
532	-1.114	0.435	-0.786	-0.205	0.019	1.063	724.574	245.865	314.228	
533	-1.221	0.313	-0.809	-0.204	0.018	1.064	728.100	249.402	331.213	
534	-1.244	0.397	-0.824	-0.204	0.018	1.064	715.759	261.784	315.926	
535	-1.205	0.366	-0.786	-0.205	0.018	1.065	729.863	244.096	319.323	
536	-1.221	0.282	-0.885	-0.202	0.018	1.065	724.574	267.090	331.213	
537	-1.343	0.336	-0.908	-0.205	0.019	1.064	743.967	244.096	322.720	
538	-1.190	0.290	-0.900	-0.204	0.018	1.064	736.915	261.784	339.705	
539	-1.335	0.366	-0.923	-0.205	0.016	1.063	722.811	226.408	319.323	
540	-1.228	0.320	-0.870	-0.203	0.018	1.063	736.915	254.709	332.911	
541	-1.236	0.252	-0.870	-0.204	0.018	1.065	729.863	244.096	315.926	
542	-1.259	0.328	-0.801	-0.202	0.018	1.067	726.337	244.096	336.308	
543	-1.167	0.290	-0.854	-0.204	0.019	1.066	724.574	245.865	327.816	
544	-1.266	0.336	-0.832	-0.204	0.018	1.065	740.441	222.870	336.308	
545	-1.228	0.328	-0.839	-0.203	0.017	1.065	726.337	251.171	315.926	
546	-1.274	0.328	-0.908	-0.205	0.020	1.066	724.574	228.177	321.022	
547	-1.297	0.343	-0.862	-0.207	0.018	1.066	721.048	242.327	324.419	
548	-1.266	0.328	-0.832	-0.205	0.018	1.070	731.626	242.327	324.419	
549	-1.221	0.206	-0.786	-0.204	0.020	1.069	731.626	238.790	341.404	
550	-1.312	0.328	-0.885	-0.205	0.017	1.066	738.678	245.865	331.213	
551	-1.213	0.343	-0.870	-0.205	0.016	1.070	729.863	233.483	322.720	
552	-1.274	0.381	-0.916	-0.204	0.018	1.068	-10972.626	-33368.621	1139.712	
553	-1.251	0.305	-0.870	-0.204	0.019	1.065	713.996	249.402	317.625	
554	-1.175	0.313	-0.893	-0.205	0.018	1.064	731.626	242.327	310.830	
555	-1.297	0.359	-0.900	-0.204	0.017	1.065	717.522	263.553	331.213	
556	-1.198	0.397	-0.885	-0.205	0.018	1.065	728.100	238.790	324.419	
557	-1.183	0.320	-0.755	-0.204	0.018	1.069	731.626	256.478	331.213	
558	-1.236	0.359	-0.885	-0.206	0.019	1.066	733.389	247.634	322.720	
559	-1.228	0.381	-0.946	-0.205	0.020	1.064	728.100	245.865	338.007	
560	-1.244	0.381	-0.847	-0.202	0.018	1.065	706.945	256.478	317.625	
561	-1.183	0.305	-0.877	-0.205	0.018	1.065	722.811	251.171	322.720	
562	-1.320	0.381	-0.839	-0.207	0.018	1.067	722.811	244.096	326.117	
563	-1.274	0.366	-0.801	-0.206	0.018	1.066	721.048	224.639	314.228	
564	-1.373	0.351	-0.839	-0.205	0.019	1.065	721.048	260.015	324.419	
565	-1.244	0.374	-0.832	-0.205	0.018	1.067	710.470	238.790	310.830	
566	-1.244	0.320	-0.893	-0.204	0.018	1.067	724.574	252.940	331.213	
567	-1.198	0.305	-0.801	-0.206	0.018	1.066	726.337	226.408	319.323	
568	-1.144	0.328	-0.900	-0.204	0.018	1.069	717.522	252.940	334.610	
569	-1.175	0.450	-0.885	-0.203	0.018	1.070	726.337	254.709	322.720	
570	-1.198	0.298	-0.916	-0.204	0.020	1.068	729.863	251.171	326.117	
571	-1.221	0.389	-0.916	-0.203	0.019	1.068	717.522	245.865	317.625	
572	-1.282	0.374	-0.877	-0.206	0.020	1.069	731.626	228.177	317.625	
573	-1.251	0.366	-0.809	-0.204	0.019	1.067	719.285	240.558	319.323	
574	-1.328	0.282	-0.885	-0.205	0.017	1.065	722.811	240.558	326.117	
575	-1.244	0.359	-0.847	-0.205	0.018	1.069	729.863	261.784	336.308	
576	-1.167	0.336	-0.801	-0.206	0.020	1.068	722.811	247.634	312.529	
577	-1.129	0.443	-0.824	-0.207	0.019	1.066	729.863	237.021	326.117	
578	-1.251	0.420	-0.809	-0.206	0.021	1.067	733.389	258.246	319.323	
579	-1.289	0.320	-0.809	-0.204	0.020	1.066	729.863	247.634	329.514	
580	-1.289	0.259	-0.771	-0.205	0.019	1.063	-9195.568	-33368.621	1115.932	
581	-1.259	0.435	-0.847	-0.206	0.020	1.067	717.522	231.714	341.404	
582	-1.167	0.381	-0.931	-0.205	0.018	1.066	733.389	240.558	322.720	
583	-1.259	0.313	-0.839	-0.203	0.018	1.066	721.048	249.402	327.816	
584	-1.183	0.305	-0.969	-0.205	0.017	1.064	717.522	238.790	310.830	
585	-1.274	0.450	-0.786	-0.205	0.018	1.062	736.915	237.021	326.117	
586	-1.129	0.359	-0.824	-0.206	0.017	1.070	719.285	237.021	305.735	
587	-1.266	0.381	-0.771	-0.203	0.018	1.064	726.337	251.171	336.308	
588	-1.266	0.359	-0.877	-0.203	0.017	1.077	733.389	254.709	326.117	
589	-1.259	0.290	-0.755	-0.204	0.021	1.067	738.678	238.790	338.007	
590	-1.266	0.320	-0.885	-0.205	0.021	1.064	712.233	244.096	326.117	
591	-1.289	0.351	-0.946	-0.204	0.020	1.065	726.337	233.483	315.926	
592	-1.297	0.290	-0.862	-0.204	0.019	1.064	728.100	249.402	327.816	
593	-1.320	0.328	-0.778	-0.208	0.018	1.065	717.522	242.327	314.228	
594	-1.198	0.397	-0.870	-0.204	0.016	1.063	719.285	240.558	332.911	
595	-1.244	0.259	-0.832	-0.206	0.019	1.068	715.759	247.634	315.926	
596	-1.175	0.305	-0.748	-0.204	0.018	1.067	731.626	245.865	324.419	
597	-1.236	0.328	-0.832	-0.206	0.020	1.070	712.233	244.096	319.323	
598	-1.236	0.328	-0.847	-0.207	0.018	1.066	728.100	238.790	324.419	
599	-1.274	0.305	-0.885	-0.206	0.016	1.065	724.574	249.402	317.625	
600	-1.366	0.381	-0.862	-0.203	0.019	1.066	722.811	237.021	329.514	
601	-1.373	0.404	-0.877	-0.204	0.018	1.066	731.626	260.015	338.007	
602	-1.236	0.359	-0.893	-0.206	0.018	1.066	726.337	240.558	322.720	
603	-1.190	0.328	-0.938	-0.204	0.019	1.062	731.626	252.940	321.022	
604	-1.266	0.481	-0.824	-0.204	0.018	1.067	726.337	226.408	319.323	
605	-1.144	0.336	-0.870	-0.206	0.018	1.065	-10782.228	-33368.621	1098.947	
606	-1.198	0.404	-0.877	-0.204	0.017	1.066	726.337	240.558	322.720	
607	-1.358	0.328	-0.839	-0.207	0.018	1.064	735.152	252.940	307.433	
608	-1.289	0.328	-0.862	-0.204	0.018	1.062	729.863	240.558	326.117	
609	-1.221	0.267	-0.816	-0.204	0.018	1.064	712.233	251.171	343.102	
610	-1.221	0.420	-0.961	-0.204	0.020	1.069	733.389	226.408	329.514	
611	-1.221	0.351	-0.801	-0.205	0.020	1.066	715.759	251.171	329.514	
612	-1.190	0.351	-0.885	-0.205	0.018	1.061	726.337	240.558	329.514	
613	-1.236	0.328	-0.832	-0.205	0.019	1.065	729.863	237.021	329.514	
614	-1.251	0.366	-0.755	-0.205	0.018	1.063	715.759	251.171	315.926	
615	-1.213	0.282	-0.832	-0.206	0.019	1.063	733.389	247.634	322.720	
616	-1.251	0.320	-0.900	-0.205	0.016	1.065	719.285	229.945	319.323	
617	-1.259	0.351	-0.877	-0.204	0.018	1.065	729.863	237.021	326.117	
618	-1.160	0.389	-0.809	-0.206	0.019	1.065	726.337	240.558	322.720	
619	-1.198	0.328	-0.809	-0.205	0.018	1.068	729.863	229.945	319.323	
620	-1.274	0.267	-0.854	-0.205	0.017	1.066	713.996	242.327	327.816	
621	-1.175	0.320	-0.786	-0.205	0.021	1.067	735.152	231.714	317.625	
622	-1.160	0.404	-0.778	-0.204	0.019	1.067	721.048	249.402	344.801	
623	-1.251	0.381	-0.839	-0.205	0.019	1.067	712.233	240.558	319.323	
624	-1.213	0.290	-0.839	-0.205	0.018	1.067	728.100	242.327	327.816	
625	-1.213	0.435	-0.938	-0.204	0.018	1.070	715.759	258.246	332.911	
626	-1.213	0.282	-0.778	-0.203	0.018	1.067	729.863	237.021	322.720	
627	-1.122	0.343	-0.832	-0.205	0.019	1.067	736.915	251.171	336.308	
628	-1.289	0.320	-0.832	-0.205	0.020	1.067	726.337	244.096	319.323	
629	-1.213	0.359	-0.908	-0.204	0.017	1.066	712.233	251.171	332.911	
630	-1.259	0.381	-0.877	-0.204	0.019	1.066	721.048	245.865	317.625	
631	-1.213	0.320	-0.801	-0.206	0.018	1.070	733.389	244.096	339.705	
632	-1.190	0.404	-0.694	-0.206	0.020	1.066	-9068.636	-33368.621	1095.550	
633	-1.297	0.313	-0.832	-0.205	0.020	1.063	724.574	238.790	331.213	
634	-1.228	0.381	-0.885	-0.205	0.017	1.065	740.441	240.558	332.911	
635	-1.350	0.374	-0.854	-0.205	0.018	1.065	715.759	247.634	315.926	
636	-1.282	0.366	-0.824	-0.204	0.018	1.065	726.337	219.333	326.117	
637	-1.259	0.298	-0.870	-0.202	0.020	1.065	722.811	244.096	312.529	
638	-1.236	0.320	-0.816	-0.205	0.017	1.064	736.915	251.171	315.926	
639	-1.350	0.305	-0.732	-0.205	0.018	1.065	729.863	251.171	336.308	
640	-1.289	0.313	-0.832	-0.203	0.018	1.065	728.100	231.714	317.625	
641	-1.312	0.298	-0.877	-0.202	0.018	1.067	726.337	240.558	336.308	
642	-1.221	0.313	-0.786	-0.204	0.018	1.066	731.626	256.478	324.419	
643	-1.282	0.320	-0.778	-0.205	0.020	1.065	726.337	240.558	322.720	
644	-1.320	0.427	-0.801	-0.206	0.019	1.065	722.811	254.709	322.720	
645	-1.289	0.328	-0.816	-0.205	0.018	1.066	726.337	244.096	322.720	
646	-1.297	0.328	-0.923	-0.203	0.019	1.065	710.470	256.478	314.228	
647	-1.205	0.381	-0.793	-0.204	0.018	1.065	724.574	235.252	321.022	
648	-1.228	0.244	-0.916	-0.205	0.019	1.066	708.708	258.246	332.911	
649	-1.198	0.351	-0.961	-0.204	0.020	1.066	713.996	228.177	321.022	
650	-1.289	0.374	-0.778	-0.205	0.018	1.067	736.915	240.558	336.308	
651	-1.190	0.267	-0.725	-0.205	0.018	1.065	738.678	231.714	321.022	
652	-1.205	0.412	-0.923	-0.204	0.018	1.066	729.863	233.483	332.911	
653	-1.251	0.435	-0.816	-0.205	0.019	1.068	721.048	252.940	327.816	
654	-1.198	0.328	-0.877	-0.205	0.019	1.066	735.152	245.865	331.213	
655	-1.320	0.443	-0.755	-0.204	0.019	1.068	719.285	247.634	312.529	
656	-1.266	0.397	-0.847	-0.206	0.018	1.066	729.863	233.483	315.926	
657	-1.221	0.443	-0.801	-0.205	0.019	1.068	712.233	237.021	336.308	
658	-1.335	0.381	-0.854	-0.205	0.018	1.069	712.233	244.096	315.926	
659	-1.198	0.252	-0.824	-0.203	0.020	1.069	729.863	244.096	326.117	
660	-1.205	0.359	-0.809	-0.205	0.020	1.067	713.996	242.327	317.625	
661	-1.221	0.412	-0.923	-0.203	0.019	1.068	740.441	247.634	329.514	
662	-1.228	0.298	-0.801	-0.206	0.016	1.067	722.811	247.634	322.720	
663	-1.274	0.343	-0.771	-0.203	0.020	1.065	731.626	249.402	314.228	
664	-1.282	0.259	-0.916	-0.205	0.019	1.066	722.811	247.634	329.514	
665	-1.129	0.320	-0.847	-0.204	0.018	1.067	-10147.564	-33368.621	1134.616	
666	-1.289	0.343	-0.778	-0.204	0.018	1.063	722.811	247.634	332.911	
667	-1.320	0.290	-0.839	-0.206	0.020	1.064	721.048	263.553	324.419	
668	-1.320	0.343	-0.885	-0.205	0.020	1.062	729.863	240.558	315.926	
669	-1.190	0.351	-0.816	-0.204	0.019	1.067	724.574	256.478	327.816	
670	-1.205	0.275	-0.923	-0.206	0.017	1.063	724.574	249.402	317.625	
671	-1.274	0.290	-0.786	-0.204	0.020	1.067	731.626	245.865	321.022	
672	-1.244	0.389	-0.694	-0.203	0.019	1.069	719.285	254.709	322.720	
673	-1.183	0.290	-0.801	-0.205	0.021	1.063	728.100	231.714	324.419	
674	-1.175	0.336	-0.771	-0.205	0.017	1.066	722.811	247.634	329.514	
675	-1.236	0.320	-0.816	-0.204	0.020	1.067	708.708	237.021	309.132	
676	-1.213	0.412	-0.809	-0.204	0.018	1.066	735.152	256.478	338.007	
677	-1.297	0.397	-0.786	-0.206	0.020	1.064	726.337	247.634	319.323	
678	-1.244	0.381	-0.870	-0.205	0.019	1.065	729.863	237.021	319.323	
679	-1.259	0.351	-0.946	-0.205	0.019	1.064	712.233	244.096	319.323	
680	-1.144	0.359	-0.839	-0.204	0.018	1.070	736.915	251.171	326.117	
681	-1.236	0.374	-0.832	-0.204	0.018	1.065	721.048	245.865	310.830	
682	-1.167	0.404	-0.809	-0.205	0.019	1.065	731.626	231.714	317.625	
683	-1.167	0.351	-0.885	-0.204	0.018	1.066	729.863	247.634	326.117	
684	-1.228	0.450	-1.015	-0.203	0.019	1.066	728.100	238.790	321.022	
685	-1.213	0.328	-0.938	-0.204	0.018	1.066	-8878.237	-33368.621	1138.013	
686	-1.289	0.381	-0.938	-0.205	0.018	1.062	724.574	245.865	324.419	
687	-1.274	0.381	-0.946	-0.202	0.018	1.067	729.863	237.021	315.926	
688	-1.297	0.443	-0.839	-0.204	0.018	1.068	735.152	256.478	324.419	
689	-1.228	0.435	-0.854	-0.205	0.019	1.068	713.996	252.940	314.228	
690	-1.175	0.298	-0.816	-0.204	0.018	1.065	733.389	237.021	332.911	
691	-1.274	0.351	-0.870	-0.204	0.020	1.064	731.626	249.402	324.419	
692	-1.221	0.366	-0.809	-0.204	0.020	1.065	722.811	233.483	315.926	
693	-1.312	0.336	-0.809	-0.204	0.018	1.064	726.337	254.709	319.323	
694	-1.137	0.320	-0.801	-0.204	0.017	1.067	717.522	231.714	321.022	
695	-1.266	0.244	-0.908	-0.206	0.018	1.064	712.233	244.096	319.323	
696	-1.228	0.389	-0.931	-0.206	0.019	1.063	712.233	261.784	312.529	
697	-1.183	0.275	-0.916	-0.204	0.018	1.067	735.152	252.940	327.816	
698	-1.221	0.404	-0.816	-0.206	0.019	1.065	726.337	258.246	309.132	
699	-1.259	0.328	-0.786	-0.202	0.020	1.068	736.915	233.483	322.720	
700	-1.350	0.275	-0.710	-0.203	0.017	1.066	717.522	238.790	321.022	
701	-1.358	0.305	-0.854	-0.204	0.017	1.068	738.678	242.327	317.625	
702	-1.358	0.320	-0.900	-0.205	0.020	1.063	710.470	245.865	338.007	
703	-1.221	0.381	-0.824	-0.205	0.019	1.066	710.470	249.402	321.022	
704	-1.282	0.275	-0.755	-0.207	0.018	1.064	728.100	249.402	331.213	
705	-1.152	0.389	-0.809	-0.205	0.018	1.065	728.100	235.252	317.625	
706	-1.259	0.397	-0.992	-0.204	0.018	1.067	722.811	251.171	329.514	
707	-1.297	0.381	-0.809	-0.206	0.020	1.066	733.389	247.634	319.323	
708	-1.198	0.305	-0.786	-0.204	0.017	1.064	740.441	237.021	322.720	
709	-1.244	0.336	-0.854	-0.206	0.020	1.067	722.811	254.709	326.117	
710	-1.259	0.366	-0.847	-0.206	0.018	1.067	721.048	256.478	317.625	
711	-1.167	0.343	-0.847	-0.203	0.017	1.065	728.100	249.402	327.816	
712	-1.266	0.397	-0.854	-0.206	0.018	1.066	719.285	233.483	326.117	
713	-1.213	0.252	-0.854	-0.204	0.020	1.066	728.100	235.252	341.404	
714	-1.312	0.412	-0.816	-0.205	0.018	1.065	724.574	235.252	321.022	
715	-1.198	0.343	-1.015	-0.204	0.020	1.067	728.100	235.252	324.419	
716	-1.282	0.313	-0.771	-0.204	0.018	1.067	721.048	263.553	331.213	
717	-1.228	0.351	-0.954	-0.203	0.019	1.066	708.708	237.021	336.308	
718	-1.251	0.282	-0.847	-0.205	0.018	1.067	708.708	251.171	332.911	
719	-1.228	0.320	-0.755	-0.207	0.018	1.068	726.337	233.483	322.720	
720	-1.213	0.336	-0.870	-0.207	0.019	1.067	717.522	245.865	331.213	
721	-1.160	0.259	-0.854	-0.204	0.020	1.067	726.337	240.558	326.117	
722	-1.251	0.427	-0.885	-0.204	0.019	1.067	729.863	244.096	322.720	
723	-1.328	0.298	-0.809	-0.205	0.018	1.064	-9639.833	-33368.621	1131.219	
724	-1.274	0.359	-0.908	-0.205	0.019	1.065	719.285	244.096	326.117	
725	-1.228	0.351	-0.862	-0.204	0.017	1.061	724.574	238.790	331.213	
726	-1.205	0.359	-0.793	-0.206	0.017	1.066	735.152	249.402	321.022	
727	-1.175	0.298	-0.954	-0.205	0.018	1.068	731.626	242.327	327.816	
728	-1.198	0.488	-0.778	-0.203	0.019	1.063	731.626	245.865	334.610	
729	-1.335	0.320	-0.801	-0.206	0.020	1.066	726.337	237.021	326.117	
730	-1.205	0.420	-0.908	-0.204	0.020	1.065	721.048	252.940	338.007	
731	-1.244	0.259	-0.832	-0.205	0.020	1.066	717.522	228.177	334.610	
732	-1.213	0.366	-0.847	-0.204	0.018	1.064	717.522	249.402	324.419	
733	-1.266	0.252	-0.931	-0.205	0.020	1.066	715.759	233.483	315.926	
734	-1.205	0.366	-0.801	-0.204	0.018	1.067	729.863	240.558	329.514	
735	-1.205	0.366	-1.038	-0.205	0.018	1.066	710.470	249.402	321.022	
736	-1.289	0.450	-0.992	-0.204	0.019	1.067	728.100	249.402	327.816	
737	-1.228	0.412	-0.923	-0.205	0.018	1.063	726.337	251.171	326.117	
738	-1.228	0.381	-0.748	-0.203	0.018	1.068	729.863	240.558	315.926	
739	-1.152	0.366	-0.847	-0.205	0.019	1.065	735.152	249.402	327.816	
740	-1.160	0.397	-0.908	-0.205	0.018	1.068	719.285	229.945	319.323	
741	-1.228	0.351	-0.839	-0.205	0.016	1.067	733.389	237.021	332.911	
742	-1.228	0.435	-0.847	-0.205	0.020	1.068	719.285	244.096	315.926	
743	-1.282	0.290	-0.893	-0.205	0.019	1.064	740.441	237.021	326.117	
744	-1.289	0.305	-0.778	-0.205	0.018	1.069	721.048	242.327	321.022	
745	-1.190	0.404	-0.954	-0.203	0.019	1.066	724.574	235.252	331.213	
746	-1.358	0.275	-0.938	-0.204	0.018	1.067	721.048	252.940	317.625	
747	-1.328	0.359	-0.862	-0.205	0.018	1.065	-8116.641	-33368.621	1124.425	
748	-1.274	0.389	-0.885	-0.205	0.018	1.066	731.626	238.790	310.830	
749	-1.274	0.305	-0.702	-0.205	0.018	1.063	713.996	238.790	324.419	
750	-1.366	0.313	-0.725	-0.204	0.016	1.065	722.811	251.171	315.926	
751	-1.198	0.336	-0.908	-0.204	0.016	1.065	726.337	251.171	329.514	
752	-1.297	0.336	-0.824	-0.204	0.021	1.064	715.759	240.558	336.308	
753	-1.312	0.359	-0.793	-0.201	0.019	1.067	735.152	238.790	334.610	
754	-1.282	0.397	-0.946	-0.206	0.017	1.069	731.626	235.252	321.022	
755	-1.274	0.359	-0.877	-0.205	0.018	1.063	736.915	237.021	329.514	
756	-1.221	0.427	-0.854	-0.204	0.017	1.063	736.915	258.246	336.308	
757	-1.228	0.351	-0.854	-0.205	0.017	1.067	736.915	233.483	315.926	
758	-1.152	0.336	-0.847	-0.204	0.018	1.068	722.811	268.859	332.911	
759	-1.205	0.381	-0.893	-0.205	0.018	1.062	713.996	235.252	321.022	
760	-1.236	0.328	-0.786	-0.204	0.018	1.064	719.285	247.634	332.911	
761	-1.297	0.305	-0.954	-0.206	0.016	1.062	721.048	238.790	310.830	
762	-1.289	0.305	-0.877	-0.204	0.017	1.064	731.626	249.402	327.816	
763	-1.160	0.343	-0.824	-0.205	0.019	1.066	713.996	252.940	327.816	
764	-1.328	0.389	-0.801	-0.205	0.019	1.064	742.204	238.790	324.419	
765	-1.244	0.298	-0.832	-0.206	0.017	1.065	728.100	252.940	321.022	
766	-1.305	0.328	-0.854	-0.206	0.018	1.065	733.389	244.096	305.735	
767	-1.228	0.381	-0.862	-0.204	0.018	1.066	733.389	240.558	329.514	
768	-1.205	0.305	-0.923	-0.202	0.019	1.066	729.863	237.021	326.117	
769	-1.274	0.343	-0.999	-0.206	0.021	1.070	726.337	247.634	332.911	
770	-1.266	0.397	-0.839	-0.205	0.018	1.068	722.811	251.171	309.132	
771	-1.251	0.389	-0.801	-0.206	0.019	1.071	721.048	245.865	334.610	
772	-1.160	0.328	-0.725	-0.202	0.020	1.067	735.152	252.940	317.625	
773	-1.312	0.443	-0.862	-0.204	0.019	1.068	719.285	229.945	322.720	
774	-1.190	0.275	-0.793	-0.205	0.016	1.063	-9576.367	-33368.621	1124.425	
775	-1.213	0.336	-0.832	-0.206	0.019	1.064	717.522	267.090	331.213	
776	-1.282	0.328	-0.923	-0.205	0.017	1.063	731.626	231.714	317.625	
777	-1.305	0.328	-0.870	-0.207	0.016	1.064	724.574	256.478	331.213	
778	-1.305	0.336	-0.870	-0.205	0.020	1.066	717.522	245.865	324.419	
779	-1.289	0.320	-0.809	-0.204	0.017	1.067	719.285	244.096	322.720	
780	-1.312	0.359	-0.748	-0.204	0.019	1.064	733.389	244.096	319.323	
781	-1.274	0.381	-1.038	-0.204	0.018	1.067	724.574	231.714	334.610	
782	-1.190	0.320	-0.969	-0.204	0.019	1.066	726.337	258.246	312.529	
783	-1.266	0.389	-0.916	-0.203	0.020	1.067	738.678	242.327	327.816	
784	-1.175	0.351	-0.816	-0.205	0.019	1.065	721.048	260.015	327.816	
785	-1.236	0.351	-0.908	-0.204	0.019	1.065	736.915	237.021	309.132	
786	-1.259	0.397	-0.847	-0.205	0.019	1.065	740.441	261.784	326.117	
787	-1.205	0.404	-0.847	-0.207	0.019	1.065	722.811	247.634	312.529	
788	-1.221	0.450	-0.977	-0.203	0.018	1.066	726.337	244.096	326.117	
789	-1.190	0.328	-0.847	-0.206	0.017	1.066	722.811	247.634	322.720	
790	-1.312	0.275	-0.977	-0.205	0.018	1.067	735.152	238.790	338.007	
791	-1.305	0.404	-0.893	-0.205	0.020	1.069	728.100	249.402	324.419	
792	-1.305	0.412	-0.786	-0.205	0.018	1.066	731.626	249.402	321.022	
793	-1.236	0.259	-0.809	-0.206	0.018	1.062	726.337	251.171	319.323	
794	-1.205	0.351	-0.877	-0.205	0.018	1.064	-8307.040	-33368.621	1117.631	
795	-1.198	0.328	-0.862	-0.204	0.019	1.065	733.389	251.171	326.117	
796	-1.198	0.313	-0.816	-0.204	0.018	1.064	724.574	252.940	341.404	
797	-1.236	0.298	-0.893	-0.207	0.018	1.066	728.100	231.714	321.022	
798	-1.282	0.389	-0.999	-0.204	0.017	1.070	736.915	247.634	336.308	
799	-1.389	0.267	-0.900	-0.206	0.019	1.065	724.574	252.940	307.433	
800	-1.297	0.343	-0.885	-0.203	0.018	1.065	729.863	244.096	336.308	
801	-1.228	0.381	-0.931	-0.205	0.017	1.068	721.048	245.865	327.816	
802	-1.221	0.244	-0.671	-0.204	0.019	1.065	719.285	244.096	329.514	
803	-1.297	0.229	-0.877	-0.204	0.018	1.065	731.626	249.402	317.625	
804	-1.282	0.404	-0.793	-0.204	0.017	1.068	729.863	237.021	329.514	
805	-1.266	0.381	-0.877	-0.204	0.017	1.066	728.100	242.327	331.213	
806	-1.167	0.389	-0.809	-0.204	0.018	1.064	721.048	235.252	310.830	
807	-1.175	0.237	-0.961	-0.204	0.018	1.067	731.626	249.402	338.007	
808	-1.205	0.404	-0.732	-0.205	0.019	1.064	713.996	231.714	310.830	
809	-1.266	0.282	-0.748	-0.205	0.019	1.066	736.915	237.021	329.514	
810	-1.236	0.381	-0.824	-0.206	0.019	1.068	717.522	256.478	324.419	
811	-1.244	0.359	-0.717	-0.204	0.020	1.066	733.389	229.945	319.323	
812	-1.289	0.336	-0.793	-0.205	0.021	1.066	733.389	247.634	329.514	
813	-1.266	0.374	-0.839	-0.206	0.020	1.068	743.967	233.483	312.529	
814	-1.312	0.290	-0.839	-0.203	0.020	1.068	724.574	242.327	324.419	
815	-1.160	0.267	-0.801	-0.205	0.019	1.064	724.574	238.790	310.830	
816	-1.274	0.343	-0.816	-0.204	0.018	1.069	-10084.097	-33368.621	1138.013	
817	-1.274	0.381	-0.946	-0.205	0.018	1.063	731.626	252.940	327.816	
818	-1.312	0.298	-0.916	-0.204	0.020	1.065	738.678	242.327	324.419	
819	-1.259	0.366	-0.854	-0.205	0.018	1.064	722.811	237.021	339.705	
820	-1.221	0.282	-0.824	-0.204	0.018	1.066	722.811	251.171	309.132	
821	-1.266	0.427	-0.877	-0.207	0.019	1.063	726.337	247.634	332.911	
822	-1.244	0.298	-0.771	-0.206	0.019	1.067	715.759	254.709	329.514	
823	-1.305	0.397	-0.908	-0.204	0.018	1.065	719.285	233.483	326.117	
824	-1.205	0.397	-0.839	-0.206	0.020	1.066	729.863	254.709	315.926	
825	-1.251	0.427	-0.847	-0.204	0.020	1.068	731.626	238.790	321.022	
826	-1.228	0.381	-0.916	-0.205	0.019	1.062	712.233	265.322	315.926	
827	-1.274	0.320	-0.816	-0.205	0.017	1.067	726.337	247.634	312.529	
828	-1.083	0.351	-0.854	-0.207	0.018	1.067	738.678	245.865	324.419	
829	-1.244	0.374	-0.717	-0.204	0.018	1.069	712.233	254.709	322.720	
830	-1.244	0.282	-0.771	-0.207	0.019	1.068	729.863	237.021	322.720	
831	-1.190	0.336	-0.809	-0.205	0.018	1.068	706.945	245.865	327.816	
832	-1.167	0.259	-0.893	-0.205	0.017	1.064	733.389	233.483	309.132	
833	-1.213	0.397	-0.854	-0.205	0.019	1.069	715.759	244.096	332.911	
834	-1.183	0.313	-0.839	-0.205	0.020	1.064	726.337	240.558	315.926	
835	-1.244	0.351	-0.916	-0.203	0.020	1.067	729.863	265.322	326.117	
836	-1.282	0.313	-0.938	-0.206	0.020	1.066	724.574	242.327	321.022	
837	-1.328	0.336	-0.801	-0.203	0.018	1.068	731.626	242.327	317.625	
838	-1.228	0.366	-0.809	-0.204	0.017	1.065	-8687.838	-33368.621	1148.204	
839	-1.274	0.336	-0.977	-0.206	0.018	1.066	721.048	242.327	324.419	
840	-1.167	0.443	-0.778	-0.206	0.019	1.068	743.967	233.483	326.117	
841	-1.259	0.427	-0.877	-0.204	0.020	1.067	735.152	260.015	317.625	
842	-1.251	0.496	-0.916	-0.205	0.019	1.063	722.811	240.558	312.529	
843	-1.251	0.412	-0.977	-0.206	0.019	1.067	724.574	238.790	338.007	
844	-1.358	0.290	-0.908	-0.207	0.017	1.064	719.285	251.171	309.132	
845	-1.274	0.328	-0.786	-0.205	0.016	1.065	721.048	252.940	341.404	
846	-1.358	0.381	-0.908	-0.205	0.019	1.065	715.759	229.945	315.926	
847	-1.389	0.389	-0.885	-0.204	0.020	1.068	728.100	256.478	331.213	
848	-1.228	0.313	-0.824	-0.205	0.018	1.065	729.863	229.945	329.514	
849	-1.175	0.381	-0.946	-0.204	0.019	1.061	729.863	237.021	339.705	
850	-1.289	0.397	-0.824	-0.206	0.017	1.067	724.574	238.790	334.610	
851	-1.266	0.336	-0.786	-0.205	0.017	1.064	733.389	244.096	319.323	
852	-1.129	0.343	-0.816	-0.205	0.020	1.070	715.759	244.096	343.102	
853	-1.251	0.320	-0.793	-0.204	0.022	1.067	722.811	237.021	322.720	
854	-1.328	0.282	-0.847	-0.204	0.018	1.066	738.678	231.714	344.801	
855	-1.152	0.381	-0.778	-0.206	0.019	1.066	724.574	242.327	321.022	
856	-1.244	0.359	-0.717	-0.203	0.019	1.067	-10718.761	-33368.621	1168.587	
857	-1.076	0.305	-0.885	-0.206	0.019	1.063	715.759	244.096	329.514	
858	-1.297	0.351	-0.847	-0.205	0.018	1.064	719.285	244.096	329.514	
859	-1.244	0.351	-0.809	-0.204	0.020	1.063	729.863	237.021	322.720	
860	-1.312	0.359	-0.816	-0.206	0.020	1.066	712.233	254.709	326.117	
861	-1.244	0.404	-0.793	-0.206	0.019	1.063	721.048	238.790	334.610	
862	-1.236	0.389	-0.893	-0.205	0.018	1.066	724.574	249.402	331.213	
863	-1.198	0.389	-0.908	-0.205	0.018	1.065	717.522	235.252	327.816	
864	-1.183	0.328	-0.763	-0.205	0.021	1.067	735.152	252.940	334.610	
865	-1.251	0.336	-0.725	-0.206	0.019	1.065	735.152	249.402	317.625	
866	-1.328	0.336	-0.786	-0.204	0.019	1.066	740.441	244.096	326.117	
867	-1.183	0.328	-0.854	-0.206	0.016	1.066	729.863	240.558	319.323	
868	-1.282	0.366	-0.885	-0.205	0.018	1.067	726.337	229.945	329.514	
869	-1.373	0.282	-0.732	-0.204	0.019	1.065	712.233	261.784	309.132	
870	-1.266	0.427	-0.938	-0.206	0.016	1.066	735.152	231.714	324.419	
871	-1.236	0.397	-0.740	-0.206	0.018	1.067	722.811	265.322	339.705	
872	-1.266	0.229	-0.786	-0.203	0.018	1.064	729.863	240.558	312.529	
873	-1.282	0.389	-0.778	-0.204	0.018	1.063	724.574	242.327	331.213	
874	-1.152	0.237	-0.778	-0.204	0.017	1.065	722.811	244.096	309.132	
875	-1.274	0.305	-0.740	-0.205	0.017	1.067	738.678	245.865	331.213	
876	-1.129	0.381	-0.801	-0.204	0.019	1.064	712.233	247.634	319.323	
877	-1.106	0.359	-0.877	-0.204	0.019	1.066	715.759	237.021	326.117	
878	-1.328	0.290	-0.923	-0.204	0.019	1.063	712.233	237.021	326.117	
879	-1.175	0.389	-0.961	-0.206	0.018	1.065	-9259.035	-33368.621	1095.550	
880	-1.343	0.328	-0.946	-0.204	0.018	1.068	729.863	229.945	305.735	
881	-1.236	0.420	-0.931	-0.206	0.019	1.067	721.048	260.015	334.610	
882	-1.221	0.351	-0.786	-0.205	0.019	1.064	719.285	247.634	315.926	
883	-1.305	0.389	-0.893	-0.206	0.019	1.068	722.811	247.634	346.500	
884	-1.213	0.320	-0.793	-0.206	0.019	1.053	710.470	252.940	314.228	
885	-1.251	0.435	-0.885	-0.204	0.021	1.063	735.152	238.790	310.830	
886	-1.183	0.381	-0.755	-0.205	0.019	1.066	722.811	237.021	329.514	
887	-1.244	0.412	-0.961	-0.205	0.020	1.066	731.626	238.790	331.213	
888	-1.312	0.366	-0.900	-0.205	0.019	1.067	722.811	265.322	315.926	
889	-1.175	0.443	-0.816	-0.202	0.019	1.066	728.100	238.790	317.625	
890	-1.167	0.374	-0.893	-0.203	0.018	1.064	722.811	244.096	332.911	
891	-1.289	0.351	-0.923	-0.206	0.019	1.065	719.285	233.483	322.720	
892	-1.190	0.427	-0.877	-0.205	0.019	1.065	726.337	240.558	332.911	
893	-1.251	0.374	-0.969	-0.204	0.019	1.063	719.285	247.634	326.117	
894	-1.228	0.336	-0.862	-0.207	0.017	1.069	735.152	238.790	331.213	
895	-1.251	0.366	-0.755	-0.205	0.018	1.067	717.522	249.402	321.022	
896	-1.228	0.343	-0.908	-0.206	0.018	1.066	-8180.107	-33368.621	1098.947	
897	-1.282	0.320	-0.870	-0.205	0.016	1.065	726.337	247.634	319.323	
898	-1.129	0.359	-0.816	-0.205	0.019	1.062	722.811	251.171	319.323	
899	-1.289	0.343	-0.938	-0.205	0.017	1.067	729.863	237.021	319.323	
900	-1.236	0.328	-0.946	-0.203	0.020	1.064	735.152	252.940	331.213	
901	-1.144	0.298	-0.847	-0.205	0.019	1.068	726.337	244.096	332.911	
902	-1.167	0.366	-0.877	-0.203	0.017	1.065	726.337	240.558	336.308	
903	-1.289	0.404	-0.786	-0.204	0.017	1.068	712.233	254.709	322.720	
904	-1.259	0.351	-0.740	-0.205	0.019	1.064	729.863	247.634	326.117	
905	-1.328	0.412	-0.832	-0.205	0.018	1.066	735.152	252.940	317.625	
906	-1.305	0.313	-0.946	-0.203	0.019	1.068	728.100	245.865	331.213	
907	-1.297	0.320	-0.854	-0.204	0.021	1.065	733.389	268.859	322.720	
908	-1.259	0.343	-0.671	-0.205	0.018	1.067	735.152	235.252	324.419	
909	-1.160	0.313	-0.824	-0.205	0.020	1.069	726.337	251.171	322.720	
910	-1.183	0.290	-0.862	-0.206	0.018	1.067	726.337	233.483	312.529	
911	-1.251	0.412	-0.809	-0.206	0.016	1.066	726.337	237.021	332.911	
912	-1.289	0.298	-0.824	-0.206	0.018	1.065	729.863	244.096	326.117	
913	-1.335	0.389	-0.885	-0.207	0.017	1.064	729.863	233.483	326.117	
914	-1.259	0.298	-0.854	-0.204	0.019	1.065	705.182	258.246	315.926	
915	-1.320	0.404	-0.916	-0.204	0.018	1.065	733.389	247.634	329.514	
916	-1.289	0.359	-0.816	-0.207	0.020	1.067	722.811	258.246	339.705	
917	-1.221	0.328	-0.916	-0.205	0.020	1.066	731.626	238.790	314.228	
918	-1.251	0.465	-0.862	-0.205	0.017	1.068	721.048	242.327	321.022	
919	-1.183	0.435	-0.870	-0.204	0.019	1.065	724.574	235.252	331.213	
920	-1.228	0.320	-0.832	-0.206	0.018	1.064	-9830.231	-33368.621	1088.756	
921	-1.228	0.366	-0.961	-0.203	0.019	1.065	724.574	252.940	331.213	
922	-1.198	0.267	-0.740	-0.202	0.018	1.065	724.574	249.402	334.610	
923	-1.221	0.336	-0.816	-0.204	0.018	1.062	743.967	240.558	332.911	
924	-1.213	0.267	-0.824	-0.204	0.019	1.066	721.048	252.940	331.213	
925	-1.236	0.381	-0.816	-0.205	0.020	1.064	738.678	252.940	327.816	
926	-1.266	0.191	-0.893	-0.205	0.018	1.062	733.389	254.709	326.117	
927	-1.175	0.359	-0.877	-0.206	0.018	1.066	729.863	240.558	315.926	
928	-1.335	0.389	-0.793	-0.205	0.018	1.064	728.100	263.553	314.228	
929	-1.266	0.320	-0.778	-0.205	0.018	1.066	719.285	244.096	312.529	
930	-1.183	0.259	-0.809	-0.205	0.019	1.064	717.522	256.478	338.007	
931	-1.335	0.267	-0.801	-0.204	0.018	1.066	712.233	240.558	312.529	
932	-1.221	0.443	-0.816	-0.207	0.018	1.063	721.048	249.402	324.419	
933	-1.274	0.343	-0.801	-0.204	0.021	1.064	715.759	247.634	315.926	
934	-1.289	0.366	-0.931	-0.204	0.020	1.070	740.441	244.096	329.514	
935	-1.335	0.381	-0.870	-0.205	0.020	1.065	717.522	256.478	334.610	
936	-1.282	0.343	-0.832	-0.205	0.016	1.069	717.522	245.865	310.830	
937	-1.190	0.328	-0.801	-0.204	0.019	1.062	721.048	260.015	334.610	
938	-1.274	0.381	-0.763	-0.205	0.017	1.068	726.337	233.483	312.529	
939	-1.190	0.320	-0.847	-0.204	0.020	1.063	717.522	245.865	341.404	
940	-1.244	0.290	-0.870	-0.203	0.020	1.064	721.048	242.327	317.625	
941	-1.282	0.389	-0.824	-0.204	0.018	1.064	733.389	237.021	326.117	
942	-1.274	0.328	-0.755	-0.204	0.017	1.069	733.389	240.558	326.117	
943	-1.228	0.412	-0.931	-0.204	0.019	1.064	729.863	244.096	332.911	
944	-1.282	0.305	-0.771	-0.205	0.018	1.067	721.048	249.402	310.830	
945	-1.266	0.313	-0.977	-0.204	0.018	1.066	736.915	226.408	319.323	
946	-1.419	0.359	-0.946	-0.205	0.017	1.066	729.863	261.784	332.911	
947	-1.236	0.244	-0.816	-0.204	0.018	1.064	721.048	228.177	317.625	
948	-1.198	0.290	-0.824	-0.202	0.019	1.067	728.100	249.402	331.213	
949	-1.282	0.336	-0.923	-0.205	0.018	1.064	719.285	244.096	312.529	
950	-1.221	0.435	-0.893	-0.207	0.021	1.068	728.100	242.327	338.007	
951	-1.328	0.328	-0.870	-0.204	0.018	1.067	719.285	247.634	322.720	
952	-1.244	0.336	-0.824	-0.205	0.019	1.067	722.811	237.021	326.117	
953	-1.312	0.252	-0.809	-0.205	0.021	1.069	715.759	258.246	332.911	
954	-1.152	0.435	-0.870	-0.203	0.019	1.068	715.759	229.945	309.132	
955	-1.190	0.404	-0.862	-0.206	0.018	1.070	715.759	251.171	336.308	
956	-1.190	0.374	-0.839	-0.204	0.020	1.068	717.522	238.790	317.625	
957	-1.213	0.320	-0.786	-0.206	0.018	1.066	713.996	238.790	327.816	
958	-1.259	0.389	-0.809	-0.204	0.017	1.067	-10591.828	-33368.621	1143.109	
959	-1.198	0.328	-0.999	-0.204	0.019	1.065	712.233	240.558	319.323	
960	-1.289	0.290	-0.900	-0.205	0.021	1.064	726.337	237.021	326.117	
961	-1.236	0.374	-0.839	-0.203	0.018	1.066	735.152	231.714	314.228	
962	-1.205	0.366	-0.710	-0.204	0.019	1.071	719.285	233.483	315.926	
963	-1.251	0.313	-0.847	-0.204	0.017	1.066	710.470	238.790	331.213	
964	-1.144	0.412	-0.816	-0.204	0.018	1.067	733.389	254.709	332.911	
965	-1.274	0.443	-0.816	-0.203	0.018	1.067	728.100	242.327	317.625	
966	-1.259	0.443	-0.916	-0.206	0.017	1.065	722.811	237.021	302.338	
967	-1.305	0.343	-0.816	-0.205	0.018	1.062	738.678	238.790	331.213	
968	-1.198	0.343	-0.801	-0.204	0.019	1.064	729.863	240.558	322.720	
969	-1.221	0.374	-0.824	-0.205	0.018	1.064	742.204	249.402	327.816	
970	-1.289	0.381	-0.916	-0.205	0.017	1.067	703.419	260.015	310.830	
971	-1.289	0.298	-0.854	-0.205	0.018	1.064	728.100	238.790	324.419	
972	-1.183	0.328	-0.916	-0.205	0.020	1.064	712.233	244.096	326.117	
973	-1.190	0.366	-1.015	-0.203	0.018	1.066	722.811	240.558	322.720	
974	-1.228	0.366	-0.923	-0.205	0.017	1.066	717.522	267.090	321.022	
975	-1.099	0.389	-0.725	-0.204	0.019	1.066	721.048	242.327	324.419	
976	-1.228	0.351	-0.839	-0.205	0.020	1.070	738.678	242.327	331.213	
977	-1.213	0.298	-0.824	-0.205	0.018	1.068	721.048	235.252	321.022	
978	-1.312	0.259	-0.832	-0.205	0.019	1.068	731.626	256.478	334.610	
979	-1.266	0.488	-0.862	-0.205	0.018	1.066	715.759	254.709	312.529	
980	-1.167	0.374	-0.816	-0.203	0.018	1.067	738.678	238.790	327.816	
981	-1.251	0.305	-0.954	-0.205	0.017	1.068	712.233	254.709	312.529	
982	-1.236	0.351	-0.992	-0.206	0.020	1.068	719.285	229.945	329.514	
983	-1.213	0.427	-0.755	-0.205	0.018	1.066	721.048	249.402	331.213	
984	-1.251	0.389	-0.877	-0.205	0.018	1.068	728.100	228.177	321.022	
985	-1.183	0.282	-0.854	-0.205	0.017	1.066	735.152	256.478	348.198	
986	-1.228	0.427	-0.748	-0.205	0.018	1.064	729.863	258.246	319.323	
987	-1.297	0.328	-0.778	-0.203	0.018	1.069	728.100	242.327	334.610	
988	-1.221	0.282	-0.839	-0.205	0.018	1.067	733.389	254.709	329.514	
989	-1.282	0.420	-0.816	-0.206	0.018	1.067	722.811	237.021	322.720	
990	-1.282	0.359	-0.801	-0.204	0.020	1.066	713.996	260.015	331.213	
991	-1.266	0.328	-0.870	-0.205	0.018	1.070	715.759	222.870	309.132	
992	-1.244	0.305	-0.763	-0.205	0.019	1.065	735.152	242.327	334.610	
993	-1.221	0.366	-0.717	-0.205	0.017	1.069	733.389	240.558	315.926	
994	-1.289	0.366	-0.740	-0.205	0.018	1.066	-8307.040	-33368.621	1105.741	
995	-1.297	0.359	-0.793	-0.205	0.019	1.065	717.522	252.940	327.816	
996	-1.205	0.313	-0.900	-0.206	0.017	1.068	735.152	252.940	317.625	
997	-1.198	0.328	-0.816	-0.204	0.018	1.065	735.152	231.714	334.610	
998	-1.251	0.389	-0.870	-0.204	0.021	1.062	722.811	251.171	329.514	
999	-1.244	0.343	-0.847	-0.206	0.017	1.065	728.100	228.177	324.419	
1000	-1.274	0.305	-0.854	-0.205	0.018	1.067	721.048	249.402	314.228	
1001	-1.183	0.298	-0.877	-0.206	0.019	1.066	728.100	245.865	321.022	
1002	-1.343	0.443	-0.900	-0.206	0.019	1.066	726.337	251.171	322.720	
1003	-1.221	0.450	-0.847	-0.203	0.018	1.064	726.337	240.558	319.323	
1004	-1.251	0.290	-0.732	-0.206	0.018	1.061	717.522	245.865	327.816	
1005	-1.251	0.343	-0.931	-0.204	0.021	1.063	722.811	261.784	315.926	
1006	-1.266	0.374	-0.763	-0.205	0.019	1.066	719.285	237.021	329.514	
1007	-1.205	0.420	-0.763	-0.204	0.019	1.068	719.285	258.246	332.911	
1008	-1.381	0.420	-0.732	-0.206	0.019	1.064	724.574	252.940	321.022	
1009	-1.251	0.336	-0.824	-0.206	0.018	1.065	722.811	254.709	332.911	
1010	-1.282	0.328	-0.793	-0.204	0.019	1.064	719.285	244.096	319.323	
1011	-1.266	0.305	-0.748	-0.205	0.018	1.068	733.389	247.634	326.117	
1012	-1.213	0.328	-0.839	-0.208	0.019	1.063	-10337.963	-33368.621	1047.991	
1013	-1.297	0.328	-0.847	-0.207	0.019	1.068	726.337	247.634	322.720	
1014	-1.175	0.359	-0.893	-0.204	0.017	1.066	728.100	245.865	331.213	
1015	-1.297	0.389	-0.816	-0.204	0.019	1.065	733.389	244.096	326.117	
1016	-1.251	0.320	-0.854	-0.205	0.020	1.064	736.915	254.709	326.117	
1017	-1.305	0.282	-0.923	-0.205	0.019	1.063	724.574	256.478	310.830	
1018	-1.366	0.359	-0.908	-0.205	0.018	1.065	728.100	245.865	331.213	
1019	-1.282	0.481	-0.984	-0.202	0.019	1.066	713.996	260.015	314.228	
1020	-1.228	0.305	-0.916	-0.206	0.020	1.068	717.522	224.639	307.433	
1021	-1.358	0.290	-0.931	-0.205	0.017	1.059	733.389	258.246	329.514	
1022	-1.251	0.328	-0.862	-0.205	0.018	1.065	736.915	244.096	322.720	
1023	-1.328	0.458	-0.801	-0.205	0.020	1.067	733.389	240.558	346.500	
1024	-1.167	0.389	-0.916	-0.205	0.018	1.065	713.996	249.402	317.625	
1025	-1.236	0.298	-0.793	-0.205	0.018	1.065	729.863	240.558	326.117	
1026	-1.297	0.328	-0.916	-0.205	0.017	1.068	722.811	258.246	326.117	
1027	-1.358	0.397	-0.816	-0.205	0.022	1.065	749.255	238.790	317.625	
1028	-1.198	0.366	-0.931	-0.208	0.019	1.070	722.811	251.171	326.117	
1029	-1.205	0.214	-0.877	-0.204	0.018	1.065	724.574	245.865	321.022	
1030	-1.183	0.420	-0.862	-0.205	0.017	1.064	715.759	244.096	329.514	
1031	-1.144	0.313	-0.847	-0.205	0.020	1.065	731.626	238.790	307.433	
1032	-1.282	0.374	-0.923	-0.205	0.020	1.068	736.915	247.634	329.514	
1033	-1.358	0.420	-0.877	-0.203	0.018	1.068	721.048	242.327	331.213	
1034	-1.244	0.351	-0.908	-0.204	0.018	1.068	724.574	235.252	317.625	
1035	-1.183	0.298	-0.916	-0.205	0.018	1.078	-8878.237	-33368.621	1129.521	
1036	-1.221	0.397	-0.786	-0.203	0.020	1.064	717.522	252.940	324.419	
1037	-1.183	0.336	-0.771	-0.206	0.018	1.063	708.708	244.096	315.926	
1038	-1.343	0.298	-0.870	-0.203	0.017	1.065	724.574	249.402	327.816	
1039	-1.167	0.328	-0.702	-0.204	0.018	1.065	729.863	240.558	326.117	
1040	-1.167	0.328	-0.854	-0.203	0.018	1.066	736.915	251.171	339.705	
1041	-1.259	0.427	-0.740	-0.205	0.018	1.064	710.470	235.252	321.022	
1042	-1.228	0.443	-0.870	-0.204	0.018	1.067	733.389	254.709	346.500	
1043	-1.175	0.275	-0.908	-0.206	0.020	1.067	724.574	252.940	314.228	
1044	-1.389	0.427	-0.862	-0.205	0.019	1.065	735.152	231.714	331.213	
1045	-1.328	0.366	-0.885	-0.205	0.017	1.065	729.863	254.709	309.132	
1046	-1.228	0.427	-0.877	-0.205	0.019	1.065	728.100	242.327	307.433	
1047	-1.289	0.282	-0.824	-0.206	0.017	1.068	721.048	263.553	321.022	
1048	-1.175	0.244	-0.870	-0.205	0.018	1.064	736.915	233.483	339.705	
1049	-1.244	0.298	-0.763	-0.205	0.018	1.067	719.285	254.709	329.514	
1050	-1.297	0.381	-0.916	-0.205	0.020	1.066	710.470	235.252	317.625	
1051	-1.251	0.290	-0.687	-0.205	0.018	1.067	721.048	245.865	341.404	
1052	-1.236	0.381	-0.839	-0.205	0.017	1.064	715.759	247.634	329.514	
1053	-1.083	0.313	-0.923	-0.204	0.019	1.066	724.574	231.714	331.213	
1054	-1.244	0.465	-0.870	-0.204	0.019	1.065	728.100	249.402	314.228	
1055	-1.259	0.320	-0.923	-0.206	0.018	1.067	738.678	238.790	331.213	
1056	-1.183	0.282	-0.847	-0.204	0.019	1.066	719.285	258.246	343.102	
1057	-1.221	0.328	-0.916	-0.204	0.019	1.066	-10655.295	-33368.621	1141.410	
1058	-1.297	0.336	-0.801	-0.203	0.018	1.067	724.574	242.327	310.830	
1059	-1.305	0.320	-0.832	-0.204	0.019	1.063	729.863	229.945	343.102	
1060	-1.274	0.389	-0.900	-0.204	0.017	1.065	731.626	242.327	321.022	
1061	-1.312	0.359	-0.862	-0.203	0.019	1.067	742.204	249.402	331.213	
1062	-1.305	0.313	-0.938	-0.206	0.017	1.066	715.759	240.558	315.926	
1063	-1.236	0.427	-0.801	-0.205	0.018	1.065	729.863	240.558	336.308	
1064	-1.198	0.374	-0.969	-0.206	0.019	1.068	724.574	256.478	331.213	
1065	-1.160	0.320	-0.893	-0.204	0.018	1.065	729.863	237.021	326.117	
1066	-1.251	0.259	-0.740	-0.205	0.019	1.067	715.759	251.171	332.911	
1067	-1.190	0.351	-0.923	-0.204	0.018	1.065	726.337	237.021	322.720	
1068	-1.213	0.359	-0.893	-0.204	0.019	1.064	728.100	249.402	334.610	
1069	-1.198	0.336	-0.793	-0.204	0.017	1.064	706.945	252.940	314.228	
1070	-1.175	0.404	-0.900	-0.203	0.018	1.062	715.759	254.709	322.720	
1071	-1.198	0.374	-0.694	-0.203	0.019	1.065	726.337	251.171	322.720	
1072	-1.305	0.320	-0.870	-0.205	0.017	1.065	722.811	237.021	326.117	
1073	-1.320	0.336	-0.755	-0.206	0.019	1.064	719.285	254.709	322.720	
1074	-1.198	0.343	-0.854	-0.204	0.021	1.067	736.915	233.483	326.117	
1075	-1.228	0.336	-0.908	-0.206	0.018	1.068	721.048	249.402	327.816	
1076	-1.228	0.366	-0.801	-0.207	0.019	1.065	717.522	249.402	314.228	
1077	-1.244	0.381	-0.809	-0.204	0.017	1.069	-9385.968	-33368.621	1156.697	
1078	-1.320	0.305	-0.900	-0.202	0.018	1.078	733.389	233.483	336.308	
1079	-1.259	0.420	-0.870	-0.204	0.018	1.067	728.100	238.790	321.022	
1080	-1.427	0.366	-0.999	-0.203	0.018	1.065	728.100	242.327	331.213	
1081	-1.274	0.221	-0.755	-0.204	0.018	1.064	724.574	242.327	314.228	
1082	-1.167	0.389	-0.793	-0.206	0.020	1.066	722.811	240.558	326.117	
1083	-1.175	0.374	-0.954	-0.206	0.018	1.064	728.100	252.940	327.816	
1084	-1.335	0.397	-0.786	-0.204	0.019	1.062	740.441	240.558	326.117	
1085	-1.251	0.298	-0.885	-0.204	0.018	1.065	738.678	252.940	341.404	
1086	-1.305	0.381	-0.809	-0.204	0.019	1.066	735.152	245.865	324.419	
1087	-1.236	0.450	-0.771	-0.205	0.019	1.065	731.626	260.015	334.610	
1088	-1.198	0.313	-0.809	-0.205	0.016	1.066	713.996	252.940	310.830	
1089	-1.266	0.404	-0.877	-0.204	0.017	1.066	721.048	252.940	327.816	
1090	-1.266	0.420	-0.877	-0.205	0.019	1.064	715.759	237.021	322.720	
1091	-1.251	0.244	-0.824	-0.205	0.017	1.065	722.811	247.634	319.323	
1092	-1.259	0.343	-0.893	-0.205	0.018	1.065	722.811	244.096	315.926	
1093	-1.312	0.450	-0.893	-0.204	0.019	1.068	729.863	240.558	326.117	
1094	-1.305	0.351	-0.877	-0.204	0.018	1.067	713.996	249.402	317.625	
1095	-1.259	0.366	-0.778	-0.204	0.020	1.064	728.100	235.252	331.213	
1096	-1.137	0.313	-0.847	-0.204	0.018	1.067	722.811	247.634	343.102	
1097	-1.312	0.290	-0.702	-0.206	0.016	1.065	710.470	238.790	327.816	
1098	-1.198	0.305	-0.717	-0.204	0.017	1.066	717.522	245.865	344.801	
1099	-1.259	0.343	-0.977	-0.204	0.019	1.066	726.337	251.171	305.735	
1100	-1.282	0.420	-0.793	-0.206	0.019	1.067	736.915	254.709	329.514	
1101	-1.236	0.290	-0.954	-0.206	0.018	1.067	722.811	244.096	315.926	
1102	-1.274	0.381	-0.870	-0.205	0.018	1.068	726.337	251.171	315.926	
1103	-1.183	0.359	-0.832	-0.204	0.019	1.065	-10909.160	-33368.621	1143.109	
1104	-1.266	0.435	-0.946	-0.206	0.019	1.064	721.048	249.402	324.419	
1105	-1.320	0.298	-0.870	-0.203	0.019	1.063	728.100	235.252	310.830	
1106	-1.282	0.320	-0.763	-0.206	0.019	1.067	726.337	247.634	315.926	
1107	-1.213	0.313	-0.710	-0.204	0.021	1.066	728.100	242.327	327.816	
1108	-1.259	0.389	-0.839	-0.206	0.018	1.067	708.708	237.021	322.720	
1109	-1.328	0.298	-0.908	-0.205	0.017	1.066	719.285	233.483	305.735	
1110	-1.282	0.404	-0.946	-0.205	0.020	1.065	717.522	249.402	331.213	
1111	-1.289	0.420	-0.931	-0.203	0.019	1.065	719.285	254.709	312.529	
1112	-1.228	0.298	-0.740	-0.205	0.020	1.062	719.285	233.483	309.132	
1113	-1.274	0.374	-0.862	-0.204	0.019	1.064	719.285	254.709	329.514	
1114	-1.350	0.275	-0.938	-0.207	0.020	1.064	735.152	245.865	324.419	
1115	-1.289	0.343	-0.801	-0.204	0.020	1.064	722.811	247.634	315.926	
1116	-1.236	0.366	-0.786	-0.206	0.018	1.065	712.233	244.096	309.132	
1117	-1.259	0.320	-0.778	-0.205	0.019	1.068	729.863	240.558	339.705	
1118	-1.244	0.259	-0.824	-0.205	0.018	1.064	719.285	247.634	315.926	
1119	-1.236	0.374	-0.870	-0.203	0.017	1.065	713.996	238.790	317.625	
1120	-1.244	0.427	-0.931	-0.205	0.016	1.066	721.048	260.015	321.022	
1121	-1.259	0.290	-0.923	-0.203	0.019	1.065	726.337	244.096	315.926	
1122	-1.297	0.282	-0.885	-0.204	0.020	1.064	721.048	238.790	341.404	
1123	-1.213	0.282	-0.633	-0.205	0.019	1.067	729.863	226.408	322.720	
1124	-1.198	0.336	-0.847	-0.205	0.019	1.066	731.626	235.252	334.610	
1125	-1.236	0.298	-0.801	-0.205	0.018	1.067	715.759	247.634	319.323	
1126	-1.213	0.404	-0.732	-0.203	0.018	1.065	715.759	233.483	329.514	
1127	-1.297	0.336	-0.931	-0.203	0.019	1.069	712.233	261.784	309.132	
1128	-1.183	0.366	-0.801	-0.205	0.019	1.065	722.811	229.945	326.117	
1129	-1.259	0.397	-0.771	-0.207	0.017	1.065	-9259.035	-33368.621	1073.469	
1130	-1.198	0.343	-0.732	-0.205	0.018	1.052	733.389	237.021	322.720	
1131	-1.259	0.427	-0.992	-0.204	0.018	1.063	740.441	233.483	319.323	
1132	-1.213	0.374	-0.824	-0.204	0.016	1.066	721.048	252.940	324.419	
1133	-1.274	0.443	-0.801	-0.204	0.019	1.068	728.100	238.790	327.816	
1134	-1.144	0.290	-0.870	-0.205	0.019	1.065	726.337	237.021	336.308	
1135	-1.244	0.359	-0.778	-0.205	0.016	1.065	722.811	240.558	315.926	
1136	-1.213	0.252	-0.923	-0.204	0.018	1.067	726.337	240.558	326.117	
1137	-1.228	0.374	-0.908	-0.202	0.019	1.062	719.285	229.945	322.720	
1138	-1.350	0.374	-0.687	-0.205	0.019	1.066	729.863	244.096	319.323	
1139	-1.305	0.458	-0.862	-0.203	0.019	1.067	726.337	254.709	312.529	
1140	-1.282	0.374	-0.870	-0.203	0.020	1.063	738.678	238.790	324.419	
1141	-1.244	0.359	-0.832	-0.204	0.019	1.064	728.100	235.252	327.816	
1142	-1.282	0.450	-0.778	-0.204	0.018	1.064	722.811	240.558	305.735	
1143	-1.266	0.389	-0.931	-0.204	0.017	1.065	722.811	240.558	336.308	
1144	-1.144	0.366	-0.885	-0.205	0.018	1.068	733.389	244.096	305.735	
1145	-1.228	0.237	-0.816	-0.204	0.018	1.063	728.100	238.790	331.213	
1146	-1.266	0.381	-0.824	-0.205	0.018	1.066	729.863	247.634	319.323	
1147	-1.144	0.298	-0.908	-0.203	0.018	1.064	728.100	242.327	341.404	
1148	-1.266	0.351	-0.763	-0.206	0.018	1.068	717.522	245.865	314.228	
1149	-1.144	0.412	-0.877	-0.206	0.017	1.065	708.708	244.096	322.720	
1150	-1.358	0.397	-0.832	-0.205	0.017	1.062	731.626	252.940	334.610	
1151	-1.259	0.336	-0.900	-0.203	0.020	1.066	733.389	237.021	329.514	
1152	-1.228	0.381	-0.786	-0.205	0.019	1.064	710.470	245.865	334.610	
1153	-1.183	0.320	-0.763	-0.203	0.019	1.069	724.574	242.327	300.639	
1154	-1.274	0.381	-0.862	-0.204	0.020	1.066	724.574	245.865	324.419	
1155	-1.183	0.381	-0.809	-0.205	0.019	1.065	-10782.228	-33368.621	1115.932	
1156	-1.244	0.305	-0.916	-0.203	0.018	1.064	728.100	252.940	327.816	
1157	-1.320	0.351	-0.885	-0.203	0.019	1.068	726.337	240.558	329.514	
1158	-1.205	0.389	-0.832	-0.204	0.017	1.064	726.337	240.558	322.720	
1159	-1.213	0.313	-0.755	-0.205	0.018	1.067	724.574	245.865	317.625	
1160	-1.152	0.359	-0.801	-0.206	0.016	1.067	724.574	256.478	324.419	
1161	-1.228	0.244	-0.862	-0.203	0.019	1.048	735.152	249.402	317.625	
1162	-1.236	0.328	-0.923	-0.206	0.018	1.063	721.048	256.478	344.801	
1163	-1.335	0.237	-0.778	-0.204	0.018	1.065	724.574	245.865	321.022	
1164	-1.366	0.313	-0.801	-0.205	0.017	1.064	731.626	256.478	331.213	
1165	-1.244	0.320	-0.801	-0.205	0.018	1.068	726.337	244.096	312.529	
1166	-1.244	0.290	-0.908	-0.204	0.018	1.064	736.915	240.558	319.323	
1167	-1.282	0.366	-0.740	-0.204	0.019	1.064	729.863	244.096	326.117	
1168	-1.221	0.397	-0.854	-0.205	0.019	1.066	731.626	242.327	324.419	
1169	-1.289	0.343	-0.916	-0.205	0.018	1.067	736.915	251.171	339.705	
1170	-1.251	0.366	-0.908	-0.204	0.016	1.065	726.337	229.945	322.720	
1171	-1.198	0.359	-0.786	-0.202	0.018	1.066	728.100	252.940	348.198	
1172	-1.228	0.328	-0.854	-0.203	0.019	1.065	706.945	242.327	307.433	
1173	-1.152	0.366	-0.870	-0.204	0.020	1.067	726.337	244.096	326.117	
1174	-1.236	0.259	-0.847	-0.203	0.019	1.065	719.285	251.171	329.514	
1175	-1.305	0.381	-0.885	-0.205	0.019	1.064	731.626	245.865	331.213	
1176	-1.160	0.381	-0.847	-0.204	0.021	1.064	729.863	265.322	309.132	
1177	-1.251	0.397	-0.900	-0.203	0.019	1.069	733.389	240.558	329.514	
1178	-1.144	0.366	-0.931	-0.204	0.017	1.069	722.811	251.171	319.323	
1179	-1.213	0.412	-0.809	-0.204	0.020	1.065	-9259.035	-33368.621	1158.396	
1180	-1.198	0.252	-0.748	-0.203	0.020	1.067	740.441	247.634	336.308	
1181	-1.160	0.397	-0.847	-0.203	0.019	1.066	721.048	256.478	317.625	
1182	-1.366	0.336	-0.862	-0.204	0.019	1.063	728.100	228.177	314.228	
1183	-1.236	0.397	-0.839	-0.204	0.019	1.063	735.152	242.327	334.610	
1184	-1.244	0.320	-0.793	-0.207	0.018	1.066	717.522	252.940	314.228	
1185	-1.221	0.282	-0.839	-0.205	0.018	1.064	724.574	231.714	334.610	
1186	-1.328	0.359	-0.847	-0.206	0.019	1.067	715.759	244.096	329.514	
1187	-1.183	0.381	-0.824	-0.204	0.019	1.062	726.337	244.096	309.132	
1188	-1.190	0.420	-0.908	-0.205	0.017	1.064	721.048	252.940	317.625	
1189	-1.297	0.298	-0.839	-0.204	0.018	1.064	729.863	233.483	309.132	
1190	-1.213	0.282	-0.893	-0.203	0.019	1.067	736.915	244.096	339.705	
1191	-1.297	0.481	-0.854	-0.206	0.018	1.067	721.048	249.402	314.228	
1192	-1.205	0.336	-0.893	-0.203	0.020	1.064	722.811	254.709	322.720	
1193	-1.198	0.351	-0.824	-0.204	0.018	1.067	722.811	244.096	322.720	
1194	-1.297	0.389	-0.923	-0.203	0.018	1.065	729.863	244.096	326.117	
1195	-1.183	0.336	-0.771	-0.205	0.017	1.068	722.811	251.171	329.514	
1196	-1.228	0.381	-0.977	-0.206	0.019	1.068	722.811	240.558	336.308	
1197	-1.274	0.259	-0.824	-0.204	0.018	1.070	728.100	249.402	321.022	
1198	-1.221	0.259	-0.854	-0.203	0.018	1.067	728.100	249.402	324.419	
1199	-1.213	0.305	-0.847	-0.207	0.018	1.066	717.522	249.402	331.213	
1200	-1.175	0.305	-0.786	-0.203	0.018	1.064	731.626	252.940	300.639	
1201	-1.167	0.381	-1.015	-0.204	0.017	1.068	724.574	245.865	321.022	
1202	-1.160	0.359	-0.786	-0.204	0.018	1.064	-10972.626	-33368.621	1138.013	
1203	-1.251	0.282	-0.763	-0.204	0.020	1.069	729.863	247.634	319.323	
1204	-1.289	0.343	-0.916	-0.204	0.018	1.067	736.915	240.558	336.308	
1205	-1.274	0.397	-0.809	-0.203	0.016	1.063	713.996	242.327	317.625	
1206	-1.411	0.389	-0.946	-0.205	0.017	1.064	728.100	252.940	327.816	
1207	-1.190	0.275	-0.793	-0.205	0.018	1.067	743.967	254.709	322.720	
1208	-1.320	0.381	-0.778	-0.205	0.019	1.066	729.863	240.558	312.529	
1209	-1.221	0.336	-0.717	-0.207	0.018	1.064	726.337	254.709	329.514	
1210	-1.114	0.343	-0.824	-0.205	0.018	1.068	729.863	251.171	326.117	
1211	-1.236	0.328	-0.847	-0.207	0.019	1.067	733.389	237.021	339.705	
1212	-1.175	0.389	-0.862	-0.205	0.019	1.064	729.863	254.709	332.911	
1213	-1.167	0.313	-0.793	-0.204	0.019	1.063	733.389	237.021	343.102	
1214	-1.366	0.328	-0.755	-0.206	0.021	1.063	719.285	251.171	319.323	
1215	-1.366	0.252	-0.854	-0.205	0.021	1.065	740.441	233.483	329.514	
1216	-1.289	0.366	-0.839	-0.203	0.018	1.066	731.626	263.553	321.022	
1217	-1.305	0.305	-0.839	-0.205	0.018	1.067	738.678	242.327	317.625	
1218	-1.160	0.313	-0.931	-0.205	0.019	1.068	715.759	265.322	329.514	
1219	-1.450	0.504	-0.816	-0.204	0.018	1.066	726.337	251.171	322.720	
1220	-1.228	0.259	-0.778	-0.205	0.020	1.065	-9830.231	-33368.621	1129.521	
1221	-1.266	0.320	-0.854	-0.206	0.017	1.064	729.863	244.096	332.911	
1222	-1.335	0.420	-0.870	-0.206	0.019	1.066	724.574	245.865	321.022	
1223	-1.305	0.381	-0.893	-0.203	0.019	1.065	728.100	238.790	327.816	
1224	-1.228	0.343	-0.824	-0.205	0.019	1.067	728.100	252.940	327.816	
1225	-1.251	0.313	-0.786	-0.204	0.020	1.068	722.811	233.483	322.720	
1226	-1.266	0.374	-0.809	-0.205	0.019	1.066	715.759	240.558	315.926	
1227	-1.160	0.381	-0.862	-0.203	0.018	1.067	724.574	252.940	321.022	
1228	-1.228	0.298	-0.755	-0.204	0.019	1.063	738.678	245.865	344.801	
1229	-1.221	0.336	-0.748	-0.205	0.019	1.066	736.915	233.483	322.720	
1230	-1.282	0.298	-0.923	-0.203	0.019	1.062	719.285	237.021	349.897	
1231	-1.183	0.328	-0.809	-0.206	0.020	1.068	724.574	256.478	327.816	
1232	-1.152	0.298	-0.816	-0.205	0.017	1.065	726.337	247.634	339.705	
1233	-1.305	0.374	-0.702	-0.204	0.017	1.066	721.048	256.478	314.228	
1234	-1.244	0.259	-0.938	-0.205	0.019	1.065	726.337	247.634	312.529	
1235	-1.183	0.336	-0.786	-0.205	0.017	1.068	724.574	263.553	334.610	
1236	-1.228	0.488	-0.740	-0.206	0.019	1.068	719.285	240.558	319.323	
1237	-1.266	0.374	-0.816	-0.204	0.019	1.067	712.233	261.784	339.705	
1238	-1.274	0.389	-0.877	-0.204	0.019	1.070	710.470	252.940	321.022	
1239	-1.282	0.397	-0.931	-0.205	0.018	1.066	717.522	260.015	327.816	
1240	-1.266	0.328	-0.885	-0.205	0.017	1.065	722.811	251.171	322.720	
1241	-1.266	0.397	-0.870	-0.203	0.021	1.070	726.337	233.483	343.102	
1242	-1.183	0.290	-0.801	-0.205	0.018	1.067	722.811	237.021	322.720	
1243	-1.160	0.313	-0.877	-0.205	0.018	1.067	731.626	238.790	338.007	
1244	-1.312	0.305	-0.885	-0.205	0.018	1.065	-8307.040	-33368.621	1115.932	
1245	-1.137	0.427	-0.984	-0.203	0.018	1.065	717.522	263.553	324.419	
1246	-1.259	0.290	-0.832	-0.206	0.020	1.065	728.100	238.790	321.022	
1247	-1.251	0.351	-0.801	-0.204	0.018	1.066	719.285	251.171	336.308	
1248	-1.266	0.328	-0.916	-0.204	0.018	1.066	721.048	249.402	317.625	
1249	-1.152	0.298	-0.832	-0.205	0.018	1.064	715.759	251.171	326.117	
1250	-1.144	0.359	-0.809	-0.205	0.019	1.063	724.574	242.327	310.830	
1251	-1.266	0.290	-0.931	-0.202	0.018	1.068	731.626	245.865	331.213	
1252	-1.297	0.389	-0.969	-0.206	0.020	1.068	715.759	247.634	312.529	
1253	-1.289	0.305	-0.877	-0.204	0.018	1.063	742.204	235.252	327.816	
1254	-1.266	0.381	-0.877	-0.202	0.019	1.068	712.233	268.859	326.117	
1255	-1.190	0.336	-0.862	-0.204	0.017	1.067	736.915	244.096	312.529	
1256	-1.289	0.298	-0.816	-0.205	0.020	1.064	736.915	254.709	329.514	
1257	-1.274	0.366	-0.755	-0.204	0.018	1.066	712.233	247.634	305.735	
1258	-1.144	0.435	-0.832	-0.203	0.018	1.067	738.678	238.790	334.610	
1259	-1.266	0.374	-0.862	-0.206	0.018	1.064	724.574	238.790	304.036	
1260	-1.282	0.381	-0.809	-0.205	0.019	1.068	724.574	252.940	331.213	
1261	-1.289	0.298	-0.870	-0.204	0.021	1.067	726.337	244.096	322.720	
1262	-1.289	0.412	-0.916	-0.204	0.018	1.061	-10337.963	-33368.621	1132.918	
1263	-1.259	0.343	-0.839	-0.206	0.019	1.065	717.522	238.790	307.433	
1264	-1.205	0.381	-0.748	-0.204	0.019	1.066	726.337	265.322	322.720	
1265	-1.297	0.305	-0.862	-0.203	0.018	1.063	736.915	229.945	329.514	
1266	-1.259	0.298	-0.954	-0.205	0.017	1.067	729.863	244.096	336.308	
1267	-1.152	0.381	-0.824	-0.205	0.018	1.066	728.100	231.714	310.830	
1268	-1.381	0.320	-0.839	-0.205	0.018	1.066	731.626	260.015	338.007	
1269	-1.282	0.412	-0.862	-0.205	0.017	1.070	719.285	233.483	326.117	
1270	-1.198	0.381	-0.854	-0.207	0.017	1.063	724.574	238.790	327.816	
1271	-1.167	0.450	-0.977	-0.206	0.019	1.066	731.626	249.402	327.816	
1272	-1.251	0.389	-0.771	-0.205	0.017	1.066	735.152	231.714	317.625	
1273	-1.305	0.351	-0.687	-0.205	0.019	1.065	726.337	254.709	332.911	
1274	-1.251	0.290	-0.816	-0.203	0.017	1.066	731.626	231.714	321.022	
1275	-1.160	0.336	-0.748	-0.204	0.018	1.068	715.759	251.171	336.308	
1276	-1.205	0.298	-0.809	-0.205	0.018	1.066	724.574	238.790	324.419	
1277	-1.312	0.389	-0.832	-0.203	0.017	1.066	731.626	256.478	348.198	
1278	-1.160	0.351	-0.771	-0.206	0.020	1.068	731.626	238.790	314.228	
1279	-1.213	0.359	-0.687	-0.205	0.018	1.064	735.152	252.940	331.213	
1280	-1.198	0.397	-0.854	-0.206	0.019	1.068	721.048	260.015	331.213	
1281	-1.251	0.443	-0.954	-0.204	0.017	1.067	735.152	245.865	327.816	
1282	-1.221	0.305	-1.015	-0.205	0.019	1.067	721.048	252.940	338.007	
1283	-1.297	0.328	-0.793	-0.204	0.018	1.067	-9005.170	-33368.621	1136.315	
1284	-1.251	0.275	-0.809	-0.205	0.018	1.066	728.100	238.790	324.419	
1285	-1.175	0.351	-0.938	-0.203	0.020	1.065	729.863	251.171	336.308	
1286	-1.160	0.328	-0.832	-0.202	0.018	1.067	729.863	251.171	312.529	
1287	-1.251	0.305	-0.992	-0.207	0.019	1.065	724.574	242.327	327.816	
1288	-1.244	0.313	-0.801	-0.205	0.018	1.064	722.811	251.171	319.323	
1289	-1.152	0.359	-0.854	-0.205	0.015	1.065	747.493	237.021	339.705	
1290	-1.228	0.389	-0.832	-0.205	0.019	1.066	713.996	249.402	317.625	
1291	-1.244	0.359	-0.748	-0.206	0.019	1.064	721.048	245.865	310.830	
1292	-1.213	0.320	-0.923	-0.203	0.019	1.067	740.441	237.021	312.529	
1293	-1.167	0.366	-0.885	-0.204	0.021	1.066	731.626	242.327	327.816	
1294	-1.289	0.351	-0.923	-0.204	0.020	1.063	721.048	252.940	331.213	
1295	-1.282	0.298	-0.763	-0.207	0.019	1.066	724.574	242.327	314.228	
1296	-1.312	0.313	-0.893	-0.205	0.017	1.066	731.626	249.402	338.007	
1297	-1.160	0.412	-0.847	-0.208	0.018	1.068	735.152	252.940	314.228	
1298	-1.259	0.320	-0.854	-0.203	0.017	1.065	719.285	237.021	332.911	
1299	-1.213	0.351	-0.786	-0.205	0.019	1.064	735.152	260.015	321.022	
1300	-1.312	0.290	-0.885	-0.205	0.017	1.065	726.337	240.558	336.308	
1301	-1.274	0.328	-0.832	-0.204	0.019	1.067	717.522	242.327	307.433	
1302	-1.244	0.298	-0.862	-0.204	0.019	1.069	719.285	233.483	319.323	
1303	-1.297	0.320	-0.824	-0.205	0.018	1.066	731.626	260.015	334.610	
1304	-1.183	0.282	-0.847	-0.206	0.020	1.068	722.811	240.558	319.323	
1305	-1.213	0.313	-0.847	-0.204	0.019	1.068	731.626	252.940	344.801	
1306	-1.381	0.359	-0.809	-0.204	0.019	1.067	722.811	251.171	312.529	
1307	-1.244	0.313	-0.946	-0.206	0.018	1.067	735.152	249.402	327.816	
1308	-1.305	0.282	-0.687	-0.204	0.020	1.066	-10591.828	-33368.621	1146.506	
1309	-1.289	0.435	-0.809	-0.205	0.018	1.065	722.811	251.171	326.117	
1310	-1.335	0.465	-0.854	-0.204	0.018	1.066	735.152	245.865	321.022	
1311	-1.175	0.366	-0.847	-0.205	0.017	1.069	728.100	270.628	331.213	
1312	-1.350	0.305	-0.717	-0.206	0.019	1.066	740.441	229.945	322.720	
1313	-1.190	0.343	-0.832	-0.205	0.017	1.069	733.389	237.021	332.911	
1314	-1.213	0.412	-0.946	-0.205	0.020	1.063	729.863	240.558	326.117	
1315	-1.213	0.343	-0.786	-0.206	0.018	1.065	722.811	237.021	346.500	
1316	-1.381	0.427	-0.969	-0.203	0.019	1.065	722.811	247.634	312.529	
1317	-1.144	0.320	-0.816	-0.206	0.017	1.063	743.967	247.634	326.117	
1318	-1.274	0.267	-0.778	-0.206	0.018	1.066	728.100	245.865	321.022	
1319	-1.175	0.298	-0.824	-0.204	0.019	1.065	733.389	240.558	326.117	
1320	-1.144	0.389	-0.732	-0.205	0.017	1.066	729.863	251.171	329.514	
1321	-1.175	0.359	-0.778	-0.204	0.018	1.066	721.048	231.714	327.816	
1322	-1.183	0.145	-0.809	-0.204	0.018	1.067	726.337	251.171	326.117	
1323	-1.411	0.366	-0.862	-0.203	0.019	1.067	731.626	235.252	327.816	
1324	-1.274	0.320	-0.946	-0.206	0.018	1.070	726.337	244.096	326.117	
1325	-1.106	0.336	-0.900	-0.206	0.019	1.070	719.285	247.634	315.926	
1326	-1.244	0.320	-0.839	-0.204	0.019	1.066	728.100	242.327	327.816	
1327	-1.228	0.313	-0.816	-0.205	0.018	1.068	722.811	251.171	305.735	
1328	-1.190	0.412	-0.954	-0.205	0.019	1.067	738.678	231.714	331.213	
1329	-1.251	0.397	-0.786	-0.206	0.019	1.070	717.522	256.478	334.610	
1330	-1.213	0.320	-0.816	-0.206	0.019	1.066	726.337	240.558	322.720	
1331	-1.289	0.237	-0.763	-0.203	0.019	1.070	713.996	238.790	331.213	
1332	-1.198	0.328	-0.854	-0.204	0.019	1.063	731.626	245.865	321.022	
1333	-1.205	0.465	-0.801	-0.204	0.019	1.065	-9005.170	-33368.621	1148.204	
1334	-1.198	0.290	-0.801	-0.205	0.018	1.063	735.152	238.790	324.419	
1335	-1.297	0.359	-0.816	-0.203	0.019	1.065	713.996	242.327	310.830	
1336	-1.312	0.366	-0.771	-0.205	0.018	1.067	736.915	237.021	329.514	
1337	-1.312	0.336	-0.847	-0.205	0.019	1.067	735.152	260.015	307.433	
1338	-1.205	0.320	-0.908	-0.204	0.018	1.064	731.626	249.402	338.007	
1339	-1.221	0.244	-0.732	-0.204	0.019	1.066	713.996	242.327	338.007	
1340	-1.274	0.351	-0.793	-0.204	0.019	1.065	721.048	242.327	310.830	
1341	-1.221	0.351	-0.793	-0.205	0.018	1.067	731.626	242.327	331.213	
1342	-1.152	0.313	-0.870	-0.206	0.019	1.065	728.100	238.790	324.419	
1343	-1.183	0.305	-0.961	-0.206	0.019	1.062	731.626	249.402	334.610	
1344	-1.122	0.381	-0.839	-0.206	0.019	1.063	724.574	249.402	321.022	
1345	-1.228	0.267	-0.854	-0.205	0.021	1.066	740.441	229.945	329.514	
1346	-1.221	0.229	-0.824	-0.207	0.018	1.065	717.522	252.940	317.625	
1347	-1.175	0.298	-0.877	-0.207	0.020	1.067	728.100	231.714	331.213	
1348	-1.305	0.351	-0.870	-0.204	0.019	1.066	728.100	252.940	331.213	
1349	-1.259	0.397	-0.923	-0.206	0.019	1.067	719.285	240.558	332.911	
1350	-1.205	0.320	-0.885	-0.205	0.019	1.069	713.996	252.940	324.419	
1351	-1.236	0.443	-0.893	-0.203	0.020	1.067	-11036.093	-33368.621	1170.285	
1352	-1.205	0.305	-0.847	-0.203	0.017	1.064	721.048	242.327	334.610	
1353	-1.175	0.412	-0.793	-0.204	0.019	1.063	728.100	231.714	341.404	
1354	-1.205	0.336	-0.900	-0.205	0.018	1.066	719.285	251.171	312.529	
1355	-1.205	0.320	-0.893	-0.203	0.016	1.067	726.337	244.096	319.323	
1356	-1.244	0.320	-0.900	-0.206	0.018	1.065	710.470	252.940	321.022	
1357	-1.236	0.298	-0.870	-0.205	0.020	1.067	740.441	233.483	329.514	
1358	-1.221	0.389	-0.946	-0.204	0.020	1.066	733.389	265.322	332.911	
1359	-1.251	0.389	-0.938	-0.205	0.020	1.067	731.626	235.252	331.213	
1360	-1.190	0.443	-0.908	-0.205	0.016	1.063	726.337	251.171	332.911	
1361	-1.198	0.290	-0.771	-0.204	0.020	1.065	728.100	235.252	314.228	
1362	-1.160	0.381	-0.832	-0.208	0.019	1.065	733.389	251.171	329.514	
1363	-1.297	0.313	-0.717	-0.203	0.020	1.063	721.048	238.790	321.022	
1364	-1.183	0.389	-0.908	-0.205	0.017	1.069	729.863	240.558	336.308	
1365	-1.244	0.351	-0.900	-0.203	0.020	1.067	736.915	258.246	326.117	
1366	-1.205	0.420	-0.824	-0.203	0.018	1.065	740.441	240.558	312.529	
1367	-1.221	0.298	-0.931	-0.204	0.019	1.064	713.996	249.402	327.816	
1368	-1.221	0.298	-0.847	-0.204	0.020	1.069	713.996	224.639	331.213	
1369	-1.343	0.267	-0.862	-0.203	0.019	1.065	721.048	252.940	327.816	
1370	-1.259	0.381	-0.923	-0.204	0.020	1.067	715.759	244.096	315.926	
1371	-1.091	0.359	-0.786	-0.206	0.018	1.068	729.863	244.096	346.500	
1372	-1.144	0.313	-0.816	-0.204	0.020	1.067	710.470	256.478	327.816	
1373	-1.205	0.290	-0.732	-0.202	0.020	1.070	724.574	238.790	331.213	
1374	-1.236	0.343	-0.816	-0.204	0.018	1.067	717.522	256.478	327.816	
1375	-1.274	0.389	-0.740	-0.203	0.020	1.063	-9512.900	-33368.621	1185.572	
1376	-1.274	0.427	-0.954	-0.204	0.018	1.064	731.626	249.402	334.610	
1377	-1.236	0.290	-0.809	-0.206	0.020	1.065	715.759	254.709	332.911	
1378	-1.297	0.443	-0.809	-0.203	0.018	1.066	731.626	224.639	321.022	
1379	-1.205	0.404	-0.946	-0.205	0.020	1.065	724.574	245.865	331.213	
1380	-1.266	0.267	-0.801	-0.204	0.018	1.065	721.048	260.015	317.625	
1381	-1.160	0.374	-0.839	-0.204	0.019	1.067	728.100	242.327	331.213	
1382	-1.144	0.404	-0.923	-0.204	0.018	1.064	713.996	270.628	314.228	
1383	-1.190	0.389	-0.847	-0.206	0.020	1.064	736.915	226.408	315.926	
1384	-1.305	0.275	-1.038	-0.204	0.019	1.064	729.863	251.171	326.117	
1385	-1.228	0.305	-0.946	-0.203	0.021	1.067	736.915	251.171	322.720	
1386	-1.236	0.374	-0.824	-0.205	0.019	1.068	726.337	254.709	326.117	
1387	-1.205	0.389	-0.908	-0.206	0.018	1.065	726.337	240.558	309.132	
1388	-1.167	0.397	-0.832	-0.205	0.018	1.065	728.100	252.940	331.213	
1389	-1.312	0.443	-0.771	-0.204	0.019	1.066	721.048	256.478	304.036	
1390	-1.167	0.366	-0.923	-0.205	0.019	1.069	736.915	251.171	319.323	
1391	-1.236	0.336	-0.786	-0.203	0.018	1.068	729.863	247.634	336.308	
1392	-1.213	0.374	-0.771	-0.203	0.019	1.067	728.100	231.714	317.625	
1393	-1.244	0.320	-0.938	-0.204	0.021	1.066	713.996	256.478	321.022	
1394	-1.228	0.282	-0.854	-0.204	0.019	1.065	736.915	244.096	319.323	
1395	-1.358	0.320	-0.877	-0.203	0.020	1.071	731.626	238.790	338.007	
1396	-1.244	0.366	-0.839	-0.206	0.021	1.067	728.100	245.865	310.830	
1397	-1.259	0.290	-0.816	-0.204	0.018	1.066	726.337	251.171	339.705	
1398	-1.312	0.397	-0.832	-0.204	0.019	1.066	-8053.174	-33368.621	1139.712	
1399	-1.244	0.397	-0.748	-0.204	0.018	1.063	710.470	235.252	321.022	
1400	-1.205	0.359	-0.900	-0.204	0.021	1.068	721.048	235.252	338.007	
1401	-1.259	0.381	-0.824	-0.206	0.022	1.067	715.759	240.558	326.117	
1402	-1.244	0.351	-0.748	-0.205	0.019	1.067	724.574	238.790	324.419	
1403	-1.305	0.397	-0.816	-0.205	0.019	1.066	719.285	258.246	319.323	
1404	-1.305	0.229	-0.839	-0.205	0.019	1.070	736.915	229.945	309.132	
1405	-1.305	0.420	-0.832	-0.205	0.018	1.064	729.863	251.171	336.308	
1406	-1.358	0.275	-0.732	-0.204	0.019	1.062	731.626	235.252	321.022	
1407	-1.312	0.336	-0.824	-0.205	0.017	1.066	717.522	245.865	338.007	
1408	-1.228	0.198	-0.816	-0.205	0.018	1.066	729.863	240.558	329.514	
1409	-1.274	0.305	-0.687	-0.206	0.018	1.067	729.863	240.558	336.308	
1410	-1.129	0.381	-0.771	-0.204	0.019	1.066	740.441	261.784	326.117	
1411	-1.297	0.351	-0.816	-0.204	0.017	1.064	728.100	245.865	327.816	
1412	-1.190	0.275	-0.832	-0.206	0.018	1.065	721.048	256.478	317.625	
1413	-1.183	0.343	-0.710	-0.204	0.020	1.065	724.574	245.865	331.213	
1414	-1.266	0.328	-0.687	-0.204	0.020	1.070	742.204	249.402	341.404	
1415	-1.244	0.374	-0.862	-0.204	0.018	1.068	731.626	231.714	314.228	
1416	-1.266	0.328	-0.839	-0.206	0.017	1.067	-10084.097	-33368.621	1083.660	
1417	-1.221	0.275	-0.969	-0.206	0.019	1.064	726.337	244.096	322.720	
1418	-1.198	0.328	-0.816	-0.204	0.018	1.064	721.048	245.865	324.419	
1419	-1.289	0.389	-0.877	-0.204	0.020	1.067	724.574	245.865	324.419	
1420	-1.244	0.374	-0.839	-0.204	0.018	1.064	719.285	247.634	329.514	
1421	-1.259	0.374	-0.885	-0.205	0.018	1.062	724.574	238.790	314.228	
1422	-1.244	0.290	-0.763	-0.203	0.019	1.066	713.996	245.865	317.625	
1423	-1.282	0.290	-0.717	-0.205	0.019	1.067	722.811	240.558	319.323	
1424	-1.305	0.366	-0.969	-0.204	0.019	1.068	713.996	245.865	321.022	
1425	-1.152	0.412	-0.992	-0.205	0.017	1.065	729.863	251.171	315.926	
1426	-1.297	0.366	-0.877	-0.204	0.020	1.068	724.574	249.402	338.007	
1427	-1.221	0.298	-0.885	-0.204	0.020	1.067	721.048	235.252	317.625	
1428	-1.228	0.336	-0.717	-0.205	0.019	1.067	736.915	240.558	319.323	
1429	-1.213	0.443	-0.771	-0.203	0.019	1.068	724.574	242.327	327.816	
1430	-1.297	0.320	-0.771	-0.204	0.018	1.067	733.389	244.096	322.720	
1431	-1.320	0.298	-0.854	-0.205	0.018	1.063	736.915	254.709	332.911	
1432	-1.274	0.397	-0.816	-0.205	0.016	1.065	738.678	231.714	321.022	
1433	-1.129	0.320	-0.801	-0.203	0.016	1.064	722.811	237.021	329.514	
1434	-1.251	0.305	-0.908	-0.206	0.019	1.062	733.389	229.945	312.529	
1435	-1.228	0.404	-0.786	-0.205	0.017	1.063	731.626	252.940	334.610	
1436	-1.282	0.397	-0.916	-0.203	0.019	1.065	738.678	252.940	327.816	
1437	-1.228	0.305	-0.786	-0.205	0.019	1.066	731.626	245.865	321.022	
1438	-1.167	0.336	-0.931	-0.204	0.018	1.068	719.285	247.634	315.926	
1439	-1.244	0.336	-0.893	-0.205	0.021	1.071	717.522	221.101	317.625	
1440	-1.244	0.359	-0.923	-0.205	0.018	1.065	-8560.905	-33368.621	1124.425	
1441	-1.259	0.336	-0.809	-0.205	0.019	1.078	719.285	251.171	326.117	
1442	-1.266	0.389	-0.847	-0.206	0.019	1.065	724.574	242.327	327.816	
1443	-1.099	0.359	-0.801	-0.203	0.017	1.066	724.574	256.478	334.610	
1444	-1.175	0.359	-0.710	-0.205	0.017	1.067	717.522	235.252	324.419	
1445	-1.198	0.305	-0.893	-0.204	0.018	1.066	742.204	231.714	321.022	
1446	-1.251	0.320	-0.816	-0.203	0.018	1.062	713.996	242.327	331.213	
1447	-1.266	0.282	-0.816	-0.205	0.020	1.067	735.152	231.714	334.610	
1448	-1.297	0.381	-0.847	-0.204	0.019	1.066	715.759	254.709	326.117	
1449	-1.282	0.237	-0.832	-0.204	0.017	1.066	717.522	235.252	317.625	
1450	-1.320	0.282	-0.847	-0.203	0.016	1.065	726.337	261.784	332.911	
1451	-1.312	0.366	-0.877	-0.205	0.018	1.067	708.708	237.021	315.926	
1452	-1.328	0.252	-0.755	-0.204	0.019	1.063	717.522	260.015	331.213	
1453	-1.236	0.244	-0.801	-0.206	0.018	1.067	726.337	254.709	315.926	
1454	-1.083	0.313	-0.877	-0.205	0.018	1.066	728.100	242.327	314.228	
1455	-1.282	0.282	-0.862	-0.204	0.018	1.067	728.100	245.865	317.625	
1456	-1.221	0.313	-0.824	-0.204	0.018	1.065	719.285	237.021	329.514	
1457	-1.129	0.389	-0.801	-0.203	0.019	1.067	729.863	258.246	326.117	
1458	-1.297	0.305	-0.778	-0.204	0.016	1.064	735.152	238.790	338.007	
1459	-1.160	0.397	-0.862	-0.204	0.020	1.067	733.389	251.171	322.720	
1460	-1.198	0.237	-0.908	-0.204	0.019	1.069	722.811	237.021	322.720	
1461	-1.297	0.366	-0.839	-0.204	0.018	1.067	731.626	249.402	324.419	
1462	-1.259	0.305	-0.786	-0.205	0.019	1.067	729.863	254.709	315.926	
1463	-1.205	0.359	-0.946	-0.205	0.020	1.067	728.100	245.865	321.022	
1464	-1.228	0.290	-0.740	-0.203	0.018	1.066	717.522	260.015	314.228	
1465	-1.335	0.374	-0.900	-0.204	0.020	1.064	-10147.564	-33368.621	1158.396	
1466	-1.251	0.343	-0.877	-0.207	0.020	1.062	724.574	238.790	321.022	
1467	-1.266	0.366	-0.854	-0.204	0.018	1.064	736.915	258.246	336.308	
1468	-1.289	0.343	-0.893	-0.206	0.017	1.069	733.389	226.408	322.720	
1469	-1.106	0.435	-0.839	-0.205	0.019	1.062	722.811	247.634	349.897	
1470	-1.221	0.404	-0.923	-0.205	0.018	1.066	721.048	249.402	324.419	
1471	-1.320	0.282	-0.847	-0.203	0.020	1.065	722.811	247.634	336.308	
1472	-1.350	0.404	-0.816	-0.204	0.018	1.064	721.048	249.402	314.228	
1473	-1.198	0.366	-0.732	-0.204	0.019	1.068	728.100	238.790	327.816	
1474	-1.244	0.359	-0.771	-0.203	0.019	1.067	721.048	260.015	314.228	
1475	-1.282	0.290	-0.824	-0.204	0.018	1.065	726.337	244.096	339.705	
1476	-1.221	0.359	-0.877	-0.204	0.019	1.065	733.389	268.859	336.308	
1477	-1.274	0.336	-0.893	-0.203	0.020	1.065	731.626	249.402	310.830	
1478	-1.205	0.351	-0.771	-0.204	0.017	1.064	733.389	240.558	329.514	
1479	-1.305	0.351	-0.885	-0.206	0.019	1.064	706.945	252.940	307.433	
1480	-1.251	0.328	-0.854	-0.204	0.019	1.064	729.863	244.096	332.911	
1481	-1.083	0.366	-0.969	-0.204	0.018	1.064	719.285	254.709	309.132	
1482	-1.228	0.275	-0.893	-0.204	0.018	1.068	719.285	247.634	343.102	
1483	-1.282	0.343	-0.870	-0.205	0.019	1.068	712.233	237.021	319.323	
1484	-1.366	0.420	-0.832	-0.207	0.016	1.070	731.626	238.790	324.419	
1485	-1.320	0.343	-0.786	-0.202	0.019	1.066	717.522	260.015	324.419	
1486	-1.320	0.351	-0.916	-0.205	0.019	1.066	724.574	231.714	317.625	
1487	-1.144	0.374	-0.816	-0.204	0.020	1.069	729.863	251.171	346.500	
1488	-1.266	0.359	-0.954	-0.204	0.017	1.069	724.574	235.252	321.022	
1489	-1.289	0.282	-0.847	-0.204	0.019	1.066	713.996	252.940	324.419	
1490	-1.221	0.381	-0.877	-0.205	0.017	1.067	-8560.905	-33368.621	1119.329	
1491	-1.228	0.389	-0.908	-0.204	0.019	1.066	717.522	249.402	304.036	
1492	-1.251	0.336	-0.870	-0.205	0.017	1.064	715.759	233.483	332.911	
1493	-1.266	0.343	-0.854	-0.204	0.016	1.065	712.233	261.784	332.911	
1494	-1.221	0.313	-0.862	-0.204	0.019	1.065	724.574	249.402	314.228	
1495	-1.259	0.374	-0.977	-0.205	0.017	1.066	729.863	261.784	329.514	
1496	-1.266	0.435	-0.771	-0.203	0.018	1.064	715.759	244.096	326.117	
1497	-1.122	0.343	-0.755	-0.204	0.019	1.069	728.100	256.478	331.213	
1498	-1.244	0.389	-0.999	-0.204	0.020	1.068	736.915	229.945	332.911	
1499	-1.175	0.305	-0.885	-0.206	0.019	1.064	724.574	242.327	334.610	
1500	-1.236	0.359	-0.862	-0.205	0.020	1.064	726.337	240.558	322.720	
1501	-1.274	0.359	-0.740	-0.204	0.018	1.066	736.915	233.483	329.514	
1502	-1.282	0.374	-0.916	-0.205	0.020	1.067	735.152	260.015	324.419	
1503	-1.198	0.313	-0.824	-0.204	0.018	1.068	719.285	240.558	326.117	
1504	-1.198	0.397	-0.885	-0.205	0.019	1.066	722.811	244.096	329.514	
1505	-1.152	0.359	-0.870	-0.205	0.020	1.066	740.441	237.021	319.323	
1506	-1.236	0.282	-0.832	-0.205	0.018	1.066	738.678	238.790	334.610	
1507	-1.221	0.320	-0.824	-0.206	0.019	1.067	-10655.295	-33368.621	1083.660	
1508	-1.297	0.320	-0.832	-0.205	0.018	1.066	740.441	237.021	343.102	
1509	-1.274	0.343	-0.824	-0.205	0.019	1.063	722.811	265.322	329.514	
1510	-1.244	0.488	-0.809	-0.205	0.018	1.064	729.863	247.634	315.926	
1511	-1.320	0.389	-0.931	-0.206	0.019	1.064	722.811	233.483	343.102	
1512	-1.289	0.282	-0.908	-0.204	0.016	1.068	713.996	245.865	331.213	
1513	-1.259	0.343	-0.824	-0.207	0.019	1.065	722.811	247.634	326.117	
1514	-1.083	0.305	-0.877	-0.205	0.018	1.065	724.574	252.940	334.610	
1515	-1.190	0.412	-0.900	-0.205	0.018	1.064	736.915	247.634	322.720	
1516	-1.160	0.328	-0.740	-0.204	0.019	1.065	726.337	247.634	346.500	
1517	-1.244	0.298	-0.793	-0.205	0.018	1.066	724.574	231.714	314.228	
1518	-1.274	0.389	-0.824	-0.204	0.019	1.065	724.574	242.327	331.213	
1519	-1.190	0.290	-0.885	-0.204	0.019	1.062	733.389	244.096	315.926	
1520	-1.289	0.381	-0.870	-0.205	0.019	1.069	721.048	238.790	327.816	
1521	-1.335	0.481	-0.923	-0.205	0.018	1.066	717.522	263.553	321.022	
1522	-1.251	0.366	-0.854	-0.205	0.020	1.068	722.811	229.945	319.323	
1523	-1.266	0.366	-0.862	-0.205	0.019	1.067	719.285	261.784	322.720	
1524	-1.328	0.298	-0.786	-0.204	0.020	1.066	722.811	244.096	315.926	
1525	-1.266	0.381	-0.801	-0.205	0.018	1.064	710.470	260.015	331.213	
1526	-1.259	0.328	-0.839	-0.203	0.020	1.065	721.048	249.402	324.419	
1527	-1.244	0.320	-0.816	-0.204	0.019	1.067	731.626	231.714	338.007	
1528	-1.183	0.351	-0.854	-0.205	0.018	1.066	724.574	260.015	321.022	
1529	-1.244	0.267	-0.771	-0.205	0.017	1.065	722.811	237.021	336.308	
1530	-1.259	0.435	-0.977	-0.205	0.017	1.067	724.574	252.940	331.213	
1531	-1.152	0.328	-0.862	-0.204	0.019	1.070	726.337	229.945	326.117	
1532	-1.259	0.389	-0.786	-0.204	0.020	1.064	729.863	251.171	319.323	
1533	-1.320	0.305	-0.908	-0.205	0.017	1.066	-9005.170	-33368.621	1129.521	
1534	-1.221	0.282	-0.885	-0.205	0.019	1.066	724.574	249.402	317.625	
1535	-1.213	0.351	-0.954	-0.203	0.017	1.063	713.996	242.327	324.419	
1536	-1.205	0.221	-0.786	-0.203	0.018	1.066	729.863	233.483	312.529	
1537	-1.221	0.366	-0.908	-0.205	0.020	1.065	726.337	247.634	329.514	
1538	-1.205	0.252	-0.793	-0.203	0.017	1.065	735.152	238.790	327.816	
1539	-1.236	0.298	-0.938	-0.204	0.018	1.068	735.152	235.252	327.816	
1540	-1.358	0.298	-0.946	-0.205	0.020	1.066	728.100	249.402	327.816	
1541	-1.289	0.328	-0.847	-0.206	0.018	1.066	729.863	222.870	326.117	
1542	-1.183	0.374	-0.977	-0.205	0.020	1.066	733.389	258.246	326.117	
1543	-1.160	0.351	-0.809	-0.203	0.017	1.065	724.574	238.790	317.625	
1544	-1.175	0.305	-0.771	-0.204	0.019	1.066	731.626	249.402	334.610	
1545	-1.312	0.328	-0.801	-0.206	0.018	1.064	705.182	240.558	319.323	
1546	-1.167	0.259	-0.900	-0.204	0.018	1.065	731.626	249.402	334.610	
1547	-1.389	0.412	-0.923	-0.205	0.019	1.062	722.811	244.096	332.911	
1548	-1.198	0.328	-0.832	-0.206	0.019	1.064	735.152	238.790	327.816	
1549	-1.274	0.351	-0.824	-0.206	0.016	1.068	729.863	240.558	329.514	
1550	-1.221	0.298	-0.801	-0.204	0.020	1.065	729.863	240.558	315.926	
1551	-1.137	0.298	-0.763	-0.206	0.018	1.068	724.574	245.865	324.419	
1552	-1.259	0.290	-0.893	-0.204	0.019	1.063	731.626	228.177	331.213	
1553	-1.266	0.305	-0.816	-0.205	0.017	1.067	715.759	258.246	339.705	
1554	-1.236	0.366	-0.893	-0.205	0.018	1.069	726.337	247.634	322.720	
1555	-1.266	0.305	-0.786	-0.204	0.017	1.067	733.389	247.634	332.911	
1556	-1.183	0.366	-0.900	-0.204	0.017	1.070	729.863	247.634	319.323	
1557	-1.221	0.359	-0.816	-0.204	0.017	1.066	-10655.295	-33368.621	1151.601	
1558	-1.343	0.305	-0.854	-0.205	0.018	1.064	721.048	242.327	327.816	
1559	-1.129	0.397	-0.603	-0.207	0.016	1.067	717.522	252.940	324.419	
1560	-1.175	0.305	-0.870	-0.203	0.018	1.068	731.626	231.714	314.228	
1561	-1.266	0.351	-0.809	-0.204	0.019	1.065	721.048	260.015	334.610	
1562	-1.305	0.305	-0.809	-0.206	0.018	1.066	713.996	238.790	321.022	
1563	-1.289	0.320	-0.900	-0.205	0.017	1.062	731.626	245.865	341.404	
1564	-1.167	0.366	-0.771	-0.204	0.019	1.068	726.337	251.171	322.720	
1565	-1.266	0.366	-0.893	-0.204	0.020	1.065	731.626	235.252	341.404	
1566	-1.205	0.381	-0.801	-0.205	0.019	1.063	729.863	251.171	319.323	
1567	-1.282	0.351	-0.969	-0.204	0.020	1.067	729.863	240.558	322.720	
1568	-1.266	0.313	-0.801	-0.205	0.018	1.066	715.759	254.709	312.529	
1569	-1.236	0.351	-0.938	-0.203	0.016	1.066	729.863	247.634	322.720	
1570	-1.259	0.397	-0.854	-0.205	0.018	1.067	721.048	260.015	327.816	
1571	-1.198	0.343	-0.694	-0.205	0.020	1.064	733.389	237.021	322.720	
1572	-1.305	0.320	-0.740	-0.205	0.021	1.069	722.811	247.634	336.308	
1573	-1.221	0.343	-0.809	-0.207	0.019	1.066	722.811	247.634	315.926	
1574	-1.205	0.313	-0.793	-0.204	0.018	1.068	728.100	252.940	327.816	
1575	-1.305	0.443	-0.938	-0.205	0.017	1.069	729.863	254.709	343.102	
1576	-1.213	0.206	-0.847	-0.204	0.018	1.065	721.048	242.327	327.816	
1577	-1.221	0.374	-0.870	-0.206	0.019	1.065	722.811	240.558	322.720	
1578	-1.114	0.320	-0.847	-0.204	0.021	1.068	729.863	229.945	322.720	
1579	-1.144	0.290	-0.908	-0.204	0.017	1.063	733.389	261.784	332.911	
1580	-1.175	0.351	-0.809	-0.204	0.017	1.065	-9195.568	-33368.621	1148.204	
1581	-1.228	0.381	-0.916	-0.204	0.020	1.067	735.152	245.865	327.816	
1582	-1.358	0.458	-0.916	-0.205	0.019	1.065	731.626	245.865	334.610	
1583	-1.213	0.374	-0.786	-0.205	0.019	1.066	712.233	254.709	309.132	
1584	-1.228	0.275	-0.847	-0.205	0.017	1.065	735.152	221.101	341.404	
1585	-1.152	0.259	-0.862	-0.206	0.017	1.066	729.863	254.709	319.323	
1586	-1.266	0.366	-0.862	-0.206	0.018	1.065	729.863	240.558	319.323	
1587	-1.274	0.397	-0.992	-0.205	0.019	1.067	715.759	251.171	329.514	
1588	-1.328	0.305	-0.854	-0.204	0.016	1.068	726.337	229.945	326.117	
1589	-1.221	0.259	-0.870	-0.205	0.020	1.066	721.048	252.940	324.419	
1590	-1.274	0.320	-0.732	-0.207	0.020	1.066	724.574	235.252	321.022	
1591	-1.266	0.351	-0.854	-0.203	0.019	1.066	722.811	251.171	336.308	
1592	-1.289	0.343	-0.916	-0.206	0.019	1.064	719.285	240.558	312.529	
1593	-1.312	0.320	-0.854	-0.206	0.017	1.067	731.626	249.402	324.419	
1594	-1.183	0.359	-0.732	-0.203	0.019	1.068	721.048	245.865	327.816	
1595	-1.373	0.343	-0.832	-0.206	0.017	1.070	728.100	228.177	321.022	
1596	-1.282	0.275	-0.977	-0.205	0.018	1.066	719.285	229.945	322.720	
1597	-1.274	0.336	-0.839	-0.203	0.018	1.067	721.048	238.790	327.816	
1598	-1.343	0.389	-0.877	-0.207	0.018	1.062	-8053.174	-33368.621	1075.168	
1599	-1.236	0.290	-0.809	-0.206	0.019	1.067	728.100	252.940	324.419	
1600	-1.251	0.328	-0.771	-0.203	0.017	1.065	733.389	240.558	319.323	
1601	-1.198	0.381	-0.923	-0.204	0.019	1.066	722.811	247.634	319.323	
1602	-1.297	0.313	-0.732	-0.205	0.018	1.064	726.337	237.021	315.926	
1603	-1.251	0.343	-0.961	-0.205	0.018	1.065	722.811	244.096	339.705	
1604	-1.259	0.343	-0.908	-0.204	0.018	1.064	713.996	242.327	314.228	
1605	-1.259	0.381	-0.916	-0.206	0.020	1.065	735.152	238.790	321.022	
1606	-1.213	0.381	-0.801	-0.204	0.020	1.062	722.811	244.096	326.117	
1607	-1.175	0.351	-0.946	-0.205	0.018	1.065	715.759	233.483	315.926	
1608	-1.236	0.351	-0.824	-0.206	0.018	1.065	731.626	245.865	321.022	
1609	-1.213	0.313	-0.816	-0.207	0.018	1.066	728.100	242.327	324.419	
1610	-1.419	0.343	-0.824	-0.203	0.018	1.067	738.678	242.327	334.610	
1611	-1.190	0.259	-0.885	-0.205	0.021	1.064	715.759	244.096	309.132	
1612	-1.221	0.320	-0.908	-0.205	0.020	1.065	729.863	237.021	319.323	
1613	-1.236	0.328	-0.854	-0.204	0.019	1.069	715.759	261.784	315.926	
1614	-1.198	0.343	-0.931	-0.205	0.018	1.064	740.441	247.634	332.911	
1615	-1.335	0.412	-0.786	-0.205	0.018	1.066	728.100	252.940	321.022	
1616	-1.289	0.259	-0.984	-0.204	0.019	1.066	729.863	233.483	309.132	
1617	-1.289	0.282	-0.717	-0.204	0.018	1.067	728.100	245.865	324.419	
1618	-1.198	0.351	-0.862	-0.204	0.018	1.065	722.811	247.634	309.132	
1619	-1.358	0.259	-0.877	-0.206	0.019	1.066	721.048	260.015	338.007	
1620	-1.350	0.313	-0.824	-0.206	0.018	1.068	703.419	249.402	317.625	
1621	-1.160	0.313	-0.801	-0.204	0.020	1.069	717.522	242.327	327.816	
1622	-1.221	0.313	-0.923	-0.204	0.018	1.068	-9703.299	-33368.621	1144.807	
1623	-1.221	0.435	-0.740	-0.206	0.019	1.066	721.048	263.553	321.022	
1624	-1.160	0.290	-0.877	-0.206	0.021	1.064	733.389	233.483	319.323	
1625	-1.213	0.381	-0.893	-0.205	0.020	1.065	726.337	254.709	329.514	
1626	-1.205	0.359	-0.862	-0.204	0.019	1.065	713.996	231.714	317.625	
1627	-1.251	0.443	-0.839	-0.207	0.018	1.064	738.678	260.015	334.610	
1628	-1.274	0.252	-0.969	-0.204	0.020	1.066	713.996	263.553	310.830	
1629	-1.251	0.366	-0.916	-0.204	0.021	1.068	722.811	247.634	332.911	
1630	-1.160	0.282	-0.862	-0.204	0.018	1.063	722.811	247.634	326.117	
1631	-1.160	0.267	-0.717	-0.206	0.019	1.064	749.255	256.478	327.816	
1632	-1.205	0.343	-1.030	-0.203	0.018	1.068	717.522	263.553	317.625	
1633	-1.190	0.298	-0.931	-0.204	0.020	1.066	740.441	244.096	326.117	
1634	-1.289	0.313	-0.839	-0.205	0.020	1.065	717.522	245.865	317.625	
1635	-1.297	0.343	-0.893	-0.204	0.019	1.066	710.470	242.327	324.419	
1636	-1.205	0.214	-0.809	-0.205	0.020	1.066	712.233	251.171	332.911	
1637	-1.274	0.366	-0.778	-0.205	0.016	1.067	722.811	244.096	322.720	
1638	-1.213	0.282	-0.900	-0.206	0.018	1.070	719.285	261.784	322.720	
1639	-1.205	0.328	-0.992	-0.204	0.018	1.070	724.574	242.327	314.228	
1640	-1.381	0.206	-0.732	-0.203	0.018	1.065	719.285	251.171	336.308	
1641	-1.328	0.298	-0.763	-0.206	0.018	1.069	729.863	251.171	315.926	
1642	-1.335	0.404	-0.908	-0.203	0.018	1.068	733.389	247.634	315.926	
1643	-1.228	0.343	-0.870	-0.205	0.019	1.069	708.708	254.709	326.117	
1644	-1.251	0.359	-0.931	-0.205	0.018	1.068	735.152	249.402	324.419	
1645	-1.236	0.351	-0.854	-0.204	0.016	1.064	731.626	252.940	327.816	
1646	-1.335	0.275	-0.870	-0.207	0.018	1.063	-8180.107	-33368.621	1068.374	
1647	-1.251	0.366	-0.816	-0.205	0.019	1.065	740.441	240.558	315.926	
1648	-1.274	0.298	-0.885	-0.204	0.020	1.067	724.574	242.327	338.007	
1649	-1.274	0.374	-0.923	-0.204	0.020	1.068	701.656	244.096	305.735	
1650	-1.190	0.366	-0.916	-0.205	0.019	1.067	742.204	238.790	314.228	
1651	-1.152	0.366	-0.854	-0.204	0.019	1.065	713.996	242.327	317.625	
1652	-1.266	0.221	-0.786	-0.205	0.019	1.061	715.759	229.945	326.117	
1653	-1.175	0.237	-0.778	-0.206	0.019	1.064	735.152	252.940	317.625	
1654	-1.205	0.221	-0.893	-0.206	0.019	1.062	728.100	245.865	321.022	
1655	-1.228	0.427	-0.908	-0.205	0.019	1.065	731.626	252.940	324.419	
1656	-1.236	0.313	-0.793	-0.207	0.018	1.066	717.522	231.714	317.625	
1657	-1.221	0.267	-0.877	-0.205	0.020	1.066	721.048	249.402	327.816	
1658	-1.228	0.259	-0.809	-0.204	0.019	1.064	719.285	244.096	326.117	
1659	-1.213	0.404	-0.893	-0.203	0.018	1.064	719.285	240.558	326.117	
1660	-1.152	0.298	-0.771	-0.205	0.018	1.067	724.574	242.327	321.022	
1661	-1.183	0.336	-0.839	-0.206	0.021	1.064	719.285	233.483	315.926	
1662	-1.183	0.298	-0.755	-0.204	0.018	1.068	719.285	247.634	336.308	
1663	-1.266	0.381	-0.900	-0.206	0.018	1.067	731.626	224.639	321.022	
1664	-1.259	0.320	-0.824	-0.206	0.017	1.067	-10211.029	-33368.621	1090.454	
1665	-1.289	0.435	-1.053	-0.205	0.019	1.064	724.574	256.478	338.007	
1666	-1.350	0.298	-0.847	-0.204	0.020	1.067	726.337	240.558	322.720	
1667	-1.221	0.343	-0.824	-0.207	0.019	1.065	726.337	261.784	326.117	
1668	-1.289	0.259	-0.809	-0.204	0.020	1.063	717.522	242.327	324.419	
1669	-1.213	0.381	-0.755	-0.205	0.017	1.063	733.389	229.945	326.117	
1670	-1.305	0.374	-0.893	-0.204	0.019	1.066	719.285	240.558	336.308	
1671	-1.274	0.381	-0.870	-0.205	0.018	1.064	731.626	245.865	327.816	
1672	-1.160	0.366	-0.801	-0.204	0.018	1.064	728.100	256.478	314.228	
1673	-1.213	0.343	-0.809	-0.206	0.019	1.063	717.522	256.478	324.419	
1674	-1.221	0.336	-0.786	-0.204	0.019	1.066	722.811	254.709	336.308	
1675	-1.266	0.389	-0.801	-0.203	0.018	1.065	721.048	245.865	317.625	
1676	-1.259	0.267	-0.717	-0.204	0.017	1.066	717.522	256.478	331.213	
1677	-1.320	0.298	-0.824	-0.202	0.020	1.065	726.337	244.096	315.926	
1678	-1.190	0.359	-0.816	-0.202	0.020	1.068	728.100	238.790	327.816	
1679	-1.381	0.450	-0.961	-0.206	0.018	1.065	724.574	238.790	324.419	
1680	-1.320	0.282	-0.832	-0.206	0.019	1.067	722.811	229.945	312.529	
1681	-1.251	0.343	-0.816	-0.206	0.017	1.066	729.863	265.322	326.117	
1682	-1.266	0.290	-0.847	-0.204	0.017	1.063	728.100	242.327	307.433	
1683	-1.328	0.328	-0.771	-0.204	0.020	1.066	736.915	251.171	329.514	
1684	-1.152	0.259	-0.946	-0.207	0.018	1.068	724.574	245.865	321.022	
1685	-1.251	0.366	-0.740	-0.206	0.019	1.068	731.626	260.015	324.419	
1686	-1.343	0.389	-0.916	-0.206	0.020	1.068	719.285	244.096	312.529	
1687	-1.228	0.328	-0.725	-0.204	0.019	1.065	735.152	245.865	324.419	
1688	-1.274	0.282	-0.816	-0.202	0.022	1.063	-8687.838	-33368.621	1190.667	
1689	-1.205	0.389	-0.847	-0.206	0.019	1.065	726.337	247.634	312.529	
1690	-1.183	0.313	-0.816	-0.204	0.018	1.068	731.626	242.327	314.228	
1691	-1.328	0.397	-0.809	-0.204	0.018	1.066	728.100	242.327	331.213	
1692	-1.213	0.267	-0.740	-0.205	0.018	1.065	728.100	231.714	324.419	
1693	-1.259	0.282	-0.832	-0.205	0.018	1.065	728.100	256.478	334.610	
1694	-1.259	0.351	-0.908	-0.205	0.018	1.062	729.863	222.870	326.117	
1695	-1.228	0.366	-0.938	-0.206	0.020	1.066	726.337	233.483	339.705	
1696	-1.244	0.313	-0.824	-0.205	0.018	1.065	719.285	254.709	319.323	
1697	-1.266	0.328	-0.931	-0.204	0.019	1.067	752.781	245.865	324.419	
1698	-1.289	0.328	-0.839	-0.205	0.020	1.066	715.759	244.096	312.529	
1699	-1.152	0.366	-0.900	-0.205	0.019	1.064	740.441	240.558	319.323	
1700	-1.236	0.381	-0.900	-0.204	0.018	1.066	731.626	252.940	338.007	
1701	-1.198	0.267	-0.839	-0.205	0.021	1.065	724.574	238.790	321.022	
1702	-1.236	0.282	-0.893	-0.207	0.020	1.066	717.522	245.865	331.213	
1703	-1.328	0.412	-0.877	-0.205	0.019	1.066	722.811	258.246	312.529	
1704	-1.251	0.381	-0.839	-0.205	0.019	1.068	726.337	251.171	343.102	
1705	-1.228	0.336	-0.801	-0.205	0.018	1.066	715.759	240.558	309.132	
1706	-1.152	0.328	-0.839	-0.204	0.019	1.067	731.626	235.252	348.198	
1707	-1.305	0.320	-0.877	-0.203	0.018	1.068	721.048	252.940	321.022	
1708	-1.289	0.343	-0.740	-0.206	0.017	1.066	722.811	237.021	319.323	
1709	-1.289	0.298	-0.748	-0.205	0.020	1.066	724.574	260.015	348.198	
1710	-1.312	0.259	-0.900	-0.205	0.018	1.068	721.048	235.252	331.213	
1711	-1.122	0.359	-1.030	-0.203	0.018	1.065	-10401.430	-33368.621	1168.587	
1712	-1.266	0.305	-0.893	-0.205	0.019	1.067	736.915	247.634	322.720	
1713	-1.137	0.282	-0.824	-0.204	0.018	1.066	717.522	245.865	317.625	
1714	-1.236	0.443	-0.900	-0.206	0.018	1.065	729.863	254.709	329.514	
1715	-1.305	0.374	-0.893	-0.205	0.020	1.064	713.996	249.402	321.022	
1716	-1.282	0.381	-0.969	-0.205	0.018	1.063	729.863	229.945	336.308	
1717	-1.144	0.313	-0.702	-0.205	0.017	1.064	733.389	237.021	322.720	
1718	-1.274	0.305	-0.893	-0.203	0.019	1.066	731.626	235.252	321.022	
1719	-1.183	0.275	-0.862	-0.206	0.018	1.063	713.996	242.327	334.610	
1720	-1.282	0.351	-0.870	-0.205	0.020	1.068	726.337	233.483	312.529	
1721	-1.129	0.313	-0.870	-0.203	0.018	1.067	733.389	254.709	332.911	
1722	-1.205	0.397	-0.877	-0.206	0.020	1.063	724.574	238.790	317.625	
1723	-1.289	0.366	-0.946	-0.204	0.018	1.066	738.678	228.177	331.213	
1724	-1.183	0.359	-0.839	-0.204	0.018	1.066	726.337	233.483	309.132	
1725	-1.236	0.374	-0.900	-0.206	0.016	1.065	733.389	247.634	309.132	
1726	-1.236	0.336	-0.809	-0.204	0.019	1.067	721.048	263.553	324.419	
1727	-1.297	0.374	-0.900	-0.206	0.017	1.068	731.626	238.790	317.625	
1728	-1.190	0.351	-0.847	-0.205	0.019	1.065	722.811	254.709	343.102	
1729	-1.228	0.336	-0.885	-0.204	0.018	1.066	729.863	247.634	322.720	
1730	-1.289	0.343	-0.854	-0.205	0.017	1.068	729.863	244.096	332.911	
1731	-1.228	0.420	-0.893	-0.204	0.018	1.069	721.048	256.478	310.830	
1732	-1.366	0.427	-0.885	-0.204	0.018	1.068	724.574	252.940	317.625	
1733	-1.266	0.389	-0.793	-0.206	0.016	1.069	722.811	251.171	322.720	
1734	-1.251	0.328	-0.893	-0.205	0.019	1.069	728.100	231.714	327.816	
1735	-1.266	0.244	-0.900	-0.205	0.018	1.066	715.759	244.096	319.323	
1736	-1.175	0.214	-0.847	-0.204	0.016	1.067	-8814.771	-33368.621	1141.410	
1737	-1.282	0.374	-0.832	-0.204	0.020	1.065	722.811	237.021	312.529	
1738	-1.198	0.359	-0.862	-0.205	0.017	1.064	712.233	254.709	339.705	
1739	-1.221	0.404	-0.771	-0.206	0.018	1.061	722.811	237.021	312.529	
1740	-1.228	0.427	-0.771	-0.204	0.020	1.066	736.915	244.096	336.308	
1741	-1.236	0.359	-0.961	-0.204	0.018	1.064	735.152	231.714	310.830	
1742	-1.289	0.389	-0.786	-0.205	0.017	1.066	715.759	229.945	326.117	
1743	-1.312	0.282	-0.916	-0.203	0.019	1.066	722.811	240.558	329.514	
1744	-1.274	0.359	-0.824	-0.206	0.019	1.064	729.863	237.021	326.117	
1745	-1.358	0.381	-0.847	-0.204	0.019	1.067	719.285	254.709	326.117	
